sep=;
ACCELEROMETER X (m/s²);ACCELEROMETER Y (m/s²);ACCELEROMETER Z (m/s²);GRAVITY X (m/s²);GRAVITY Y (m/s²);GRAVITY Z (m/s²);LINEAR ACCELERATION X (m/s²);LINEAR ACCELERATION Y (m/s²);LINEAR ACCELERATION Z (m/s²);MAGNETIC FIELD X (μT);MAGNETIC FIELD Y (μT);MAGNETIC FIELD Z (μT);ORIENTATION X (°);ORIENTATION Y (°);ORIENTATION Z (°);PROXIMITY (i);SOUND LEVEL (dB);LOCATION Latitude : ;LOCATION Longitude : ;LOCATION Altitude ( m);LOCATION Speed ( Kmh);LOCATION Accuracy ( m);Temperature (F);Level (%);Voltage (Volt);Time since start in ms ;YYYY-MO-DD HH-MI-SS_SSS
0.6129;9.5001;3.6774;0.5906;9.6197;3.4961;0.0223;-0.1196;0.1813;-17.7;-294.2;-1017.7;350.46;-69.83;-9.03;;30.569;19.519264;-96.914856;;;87.09678;91.4;80.0;3.0;59;2014-11-08 13:53:58:448
0.3065;9.1936;4.4436;0.2285;9.2844;4.432;0.078;-0.0908;0.0116;-19.2;-294.2;-1019.9;355.64;-65.72;-4.52;;38.636;19.519264;-96.914856;;;87.09678;91.4;80.0;3.0;560;2014-11-08 13:53:58:949
-0.1532;9.6533;3.5242;0.0993;9.2375;4.647;-0.2525;0.4158;-1.1228;-17.1;-295.0;-1019.9;359.65;-63.29;-1.22;;39.046;19.519264;-96.914856;;;87.09678;91.4;80.0;3.0;1060;2014-11-08 13:53:59:449
-1.5323;9.6533;4.9033;-0.549;9.5454;2.729;-0.9832;0.1079;2.1743;-1.6;-293.1;-1023.6;13.03;-73.74;11.38;;31.037;19.519264;-96.914856;;;87.09678;91.4;80.0;3.0;1560;2014-11-08 13:53:59:949
0.0;9.6533;4.5968;-1.9391;9.3678;5.2574;1.3261;-0.0209;0.412;2.2;-289.5;-1030.8;25.1;-64.42;20.02;;32.274;19.519264;-96.914856;;;87.09678;91.4;80.0;3.0;2064;2014-11-08 13:54:00:453
1.0726;8.121;5.8226;0.1749;8.3958;5.1178;0.8977;-0.2748;0.2452;-3.6;-291.7;-1035.7;357.55;-58.62;-1.96;;32.614;19.519264;-96.914856;;;87.09678;91.4;80.0;3.0;2564;2014-11-08 13:54:00:953
1.992;8.7339;5.5162;1.4082;8.5373;5.5299;0.5838;0.1966;-0.0137;-6.0;-293.9;-1033.5;339.61;-56.24;-14.29;;30.555;19.519264;-96.914856;;;87.09678;91.4;80.0;3.0;3064;2014-11-08 13:54:01:453
2.6049;8.7339;3.371;2.1924;8.5379;5.0468;0.4125;0.1961;-1.6758;-10.1;-296.0;-1031.3;332.47;-58.34;-20.36;;30.281;19.519264;-96.914856;;;87.09678;91.4;80.0;3.0;3564;2014-11-08 13:54:01:953
2.1452;7.8146;6.8952;2.2212;8.9065;4.1904;-0.076;-1.092;2.7048;-12.3;-296.6;-1032.1;324.8;-61.96;-27.93;;29.723;19.519264;-96.914856;;;87.09678;91.4;80.0;3.0;4064;2014-11-08 13:54:02:453
1.992;7.6614;6.4355;2.5774;7.9243;6.6819;-0.5854;-0.2629;-0.2464;-18.7;-297.3;-1030.5;327.3;-48.96;-20.61;;29.501;19.519264;-96.914856;;;87.09678;91.4;80.0;3.0;4612;2014-11-08 13:54:03:001
1.2258;8.121;6.1291;1.69;7.3722;7.1282;-0.4642;0.7489;-0.9991;-17.4;-297.7;-1031.6;333.45;-48.89;-16.42;;29.401;19.519264;-96.914856;;;87.09678;91.4;80.0;3.0;5112;2014-11-08 13:54:03:501
1.5323;7.5081;6.4355;1.5481;8.0864;6.453;-0.0158;-0.5783;-0.0175;-16.2;-297.9;-1031.7;339.1;-50.63;-13.49;;30.194;19.519264;-96.914856;;;87.09678;91.4;80.0;3.0;5612;2014-11-08 13:54:04:001
2.2984;7.8146;5.9759;2.0401;7.7121;6.6628;0.2583;0.1024;-0.687;-15.7;-297.9;-1031.2;334.15;-48.05;-15.65;;29.631;19.519264;-96.914856;;;87.09678;91.4;80.0;3.0;6112;2014-11-08 13:54:04:501
2.2984;8.2743;6.5888;1.869;8.2658;5.8971;0.4294;0.0085;0.6916;-19.2;-297.9;-1027.6;331.61;-52.32;-19.17;;29.51;19.519264;-96.914856;;;87.09678;91.4;80.0;3.0;6613;2014-11-08 13:54:05:002
1.5323;7.9678;6.2823;1.8713;8.1553;5.953;0.2739;0.2722;0.0228;-20.6;-298.1;-1028.0;334.41;-51.22;-16.91;;33.781;19.519264;-96.914856;;;87.09678;91.4;80.0;3.0;7113;2014-11-08 13:54:05:502
2.1452;8.121;6.5888;1.4764;7.9293;6.4319;0.6688;0.1917;0.1569;-20.4;-298.1;-1027.8;340.95;-52.03;-12.93;;40.971;19.519264;-96.914856;;;87.09678;91.4;80.0;3.0;7613;2014-11-08 13:54:06:002
2.1452;7.9678;6.4355;1.7373;8.0209;6.2378;0.4079;-0.0531;0.351;-20.2;-298.1;-1028.6;335.82;-50.46;-15.73;;39.481;19.519264;-96.914856;;;87.09678;91.4;80.0;3.0;8114;2014-11-08 13:54:06:503
1.8387;7.5081;6.8952;1.9179;7.799;6.5915;0.2273;-0.4441;-0.0028;-19.6;-298.1;-1029.6;333.96;-48.64;-16.22;;30.69;19.519264;-96.914856;;;87.09678;91.4;80.0;3.0;8617;2014-11-08 13:54:07:006
1.992;8.4275;7.6614;1.4382;7.3084;6.8795;0.5538;1.1191;0.7818;-18.2;-298.1;-1030.3;335.09;-46.68;-14.66;;33.231;19.519264;-96.914856;;;87.09678;91.4;80.0;3.0;9118;2014-11-08 13:54:07:507
1.6855;8.5807;5.8226;1.3742;7.877;6.8879;0.3113;0.7037;-1.0652;-19.1;-297.9;-1028.7;341.86;-48.28;-11.28;;34.373;19.519264;-96.914856;;;87.09678;91.4;80.0;3.0;9618;2014-11-08 13:54:08:007
3.2178;8.121;7.5081;1.4905;8.0088;6.0774;1.7272;0.1123;1.4307;-24.8;-297.7;-1028.4;340.06;-52.0;-13.78;;35.343;19.519264;-96.914856;;;87.09678;91.4;80.0;3.0;10120;2014-11-08 13:54:08:509
1.8387;9.0404;5.5162;2.1428;8.2745;5.7155;-0.304;0.7659;-0.1993;-23.0;-297.5;-1027.1;329.2;-49.63;-19.88;;37.63;19.519264;-96.914856;;;87.09678;91.4;80.0;3.0;10648;2014-11-08 13:54:09:037
1.379;8.7339;3.5242;1.6572;8.6599;5.7669;-1.016;0.3905;-2.1971;-19.2;-297.3;-1024.6;333.64;-56.49;-19.41;;35.152;19.519867;-96.915565;;;203.22581;91.4;80.0;3.0;11151;2014-11-08 13:54:09:540
3.0645;7.9678;6.5888;0.787;8.962;4.0988;2.6523;-0.2344;1.7593;-22.0;-297.3;-1023.1;343.51;-67.69;-14.75;;29.693;19.519867;-96.915565;;;203.22581;91.4;80.0;3.0;11657;2014-11-08 13:54:10:046
3.2178;9.5001;5.3629;2.7222;8.5737;5.6987;-0.4536;0.783;-0.3921;-24.9;-297.1;-1021.9;323.99;-53.62;-25.53;;30.494;19.519867;-96.915565;;;203.22581;91.4;80.0;3.0;12159;2014-11-08 13:54:10:548
3.5242;8.8872;6.5888;2.1773;8.8547;4.3398;0.446;-0.3569;1.7252;-25.9;-296.9;-1021.5;328.09;-60.62;-25.47;;34.73;19.519867;-96.915565;;;203.22581;91.4;80.0;3.0;12659;2014-11-08 13:54:11:048
0.7661;7.9678;4.1371;2.9188;8.6825;5.7572;-2.1094;-0.8043;-1.3159;-23.7;-296.5;-1021.0;323.21;-53.82;-26.28;;39.015;19.519867;-96.915565;;;203.22581;91.4;80.0;3.0;13159;2014-11-08 13:54:11:548
1.0726;9.5001;3.8307;1.2137;9.0825;4.2305;-0.0509;0.346;-0.5305;-18.3;-296.5;-1020.2;334.31;-64.01;-21.12;;35.314;19.519867;-96.915565;;;203.22581;91.4;80.0;3.0;13659;2014-11-08 13:54:12:048
0.9194;9.5001;2.6049;1.1874;9.434;3.7446;-0.2795;0.0373;-0.9596;-20.6;-296.5;-1018.0;339.94;-67.39;-17.59;;32.658;19.519867;-96.915565;;;203.22581;91.4;80.0;3.0;14163;2014-11-08 13:54:12:552
1.8387;8.5807;4.75;0.7153;9.4314;3.2639;1.0925;-0.9191;1.7658;-25.2;-296.1;-1017.8;347.08;-70.49;-12.36;;33.597;19.519867;-96.915565;;;203.22581;91.4;80.0;3.0;14663;2014-11-08 13:54:13:052
2.6049;8.8872;5.8226;3.16;8.6166;5.076;-0.5921;0.1744;0.6548;-23.9;-296.1;-1017.2;319.77;-55.64;-29.74;;35.14;19.519867;-96.915565;;;203.22581;91.4;80.0;3.0;15163;2014-11-08 13:54:13:552
1.6855;9.3468;4.5968;2.0434;9.0729;4.0576;-0.4785;0.2428;0.4129;-24.4;-295.9;-1017.2;325.05;-58.59;-26.95;;33.738;19.519867;-96.915565;;;203.22581;91.4;80.0;3.0;15663;2014-11-08 13:54:14:052
1.2258;10.2662;3.2178;1.5731;9.4328;3.959;-0.3669;0.9167;-0.8486;-24.5;-295.3;-1015.3;335.0;-64.46;-21.09;;31.893;19.519867;-96.915565;;;203.22581;91.4;80.0;3.0;16163;2014-11-08 13:54:14:552
2.1452;9.9598;4.4436;1.6132;9.1298;3.5609;0.6391;0.5267;1.0222;-25.4;-294.9;-1015.3;331.95;-66.82;-24.37;;35.95;19.519867;-96.915565;;;203.22581;91.4;80.0;3.0;16663;2014-11-08 13:54:15:052
2.2984;8.8872;4.4436;1.6132;9.4663;4.4927;0.6486;-0.6053;-0.1045;-32.3;-295.6;-1022.4;336.79;-63.24;-19.75;;32.428;19.519867;-96.915565;;;203.22581;91.4;80.0;3.0;17163;2014-11-08 13:54:15:552
0.9194;10.113;3.0645;1.4107;9.0922;4.0487;-0.5021;0.917;-0.8113;-35.6;-296.2;-1019.1;338.24;-64.75;-19.21;;31.551;19.519867;-96.915565;;;203.22581;91.4;80.0;3.0;17664;2014-11-08 13:54:16:053
2.6049;7.2017;4.4436;1.6806;9.1596;4.3608;0.6652;-1.8931;-0.3414;-34.3;-295.8;-1020.0;335.17;-62.97;-21.08;;30.911;19.519867;-96.915565;;;203.22581;91.4;80.0;3.0;18164;2014-11-08 13:54:16:553
2.2984;7.8146;3.6774;2.6223;8.8774;3.7856;-0.4797;-1.459;0.0565;-30.5;-294.9;-1018.8;318.27;-62.58;-34.71;;31.395;19.519867;-96.915565;;;203.22581;91.4;80.0;3.0;18664;2014-11-08 13:54:17:053
3.9839;7.2017;3.6774;3.3097;8.4259;5.2035;0.458;-1.1276;-1.7399;-28.6;-295.3;-1023.4;314.6;-58.01;-35.46;;34.877;19.519867;-96.915565;;;203.22581;91.4;80.0;3.0;19164;2014-11-08 13:54:17:553
3.5242;8.2743;5.2097;4.4806;7.9076;4.5569;-0.5981;-0.457;0.1348;-27.3;-295.3;-1026.3;303.52;-50.34;-40.4;;31.039;19.519867;-96.915565;;;203.22581;91.4;80.0;3.0;19664;2014-11-08 13:54:18:053
5.6694;8.2743;5.8226;4.8623;7.19;5.501;0.2975;-0.6084;-0.3231;-29.2;-295.1;-1025.9;299.74;-48.72;-42.73;;35.737;19.519867;-96.915565;;;203.22581;91.4;80.0;3.0;20164;2014-11-08 13:54:18:553
5.8226;6.742;5.9759;5.543;6.6385;5.9051;-0.3202;0.6492;-0.4296;-31.6;-294.5;-1029.8;292.42;-42.65;-45.09;;32.379;19.519867;-96.915565;;;203.22581;91.4;80.0;3.0;20665;2014-11-08 13:54:19:054
5.3629;6.1291;6.2823;5.1964;6.3188;6.115;0.1665;-0.1897;0.1673;-32.3;-293.9;-1030.3;292.6;-37.59;-39.66;;37.643;19.519867;-96.915565;;;203.22581;91.4;80.0;3.0;21165;2014-11-08 13:54:19:554
5.0565;5.5162;7.9678;5.4139;6.3091;5.9545;-0.3574;-0.793;2.0133;-37.2;-293.2;-1030.8;290.98;-38.1;-42.28;;30.947;19.519867;-96.915565;;;203.22581;91.4;80.0;3.0;21666;2014-11-08 13:54:20:055
5.3629;7.5081;5.9759;4.9722;6.2971;7.0103;0.3907;1.211;-1.0345;-48.8;-282.7;-1027.7;295.29;-33.99;-34.25;;32.591;19.519867;-96.915565;;;203.22581;91.4;80.0;3.0;22166;2014-11-08 13:54:20:555
4.75;8.7339;7.0484;5.2137;7.0384;4.3643;-0.4636;1.6955;2.6842;-47.6;-283.3;-1029.3;291.64;-42.64;-47.4;;29.962;19.519867;-96.915565;;;203.22581;91.4;80.0;3.0;22666;2014-11-08 13:54:21:055
3.371;7.2017;7.5081;3.7229;5.7497;8.1401;-0.3519;1.452;-0.6319;-47.7;-278.7;-1041.3;308.57;-47.25;-35.59;;29.801;19.519867;-96.915565;;;203.22581;91.4;80.0;3.0;23175;2014-11-08 13:54:21:564
4.1371;7.3549;10.8791;2.91;5.7217;6.1965;1.2271;1.6332;4.6826;-47.0;-273.8;-1033.9;315.42;-39.89;-25.16;;29.693;19.519867;-96.915565;;;203.22581;91.4;80.0;3.0;23675;2014-11-08 13:54:22:064
5.3629;6.2823;7.2017;4.5442;5.724;8.7899;0.5123;0.8647;-1.7415;-50.5;-274.5;-1042.4;298.71;-30.05;-27.34;;30.177;19.519867;-96.915565;;;203.22581;91.4;80.0;3.0;24177;2014-11-08 13:54:22:566
3.371;7.5081;9.9598;4.4009;6.0743;6.0636;-1.0299;1.4338;3.8962;-50.6;-277.1;-1034.6;300.31;-39.03;-35.97;;29.938;19.519867;-96.915565;;;203.22581;91.4;80.0;3.0;24677;2014-11-08 13:54:23:066
4.4436;5.8226;7.2017;4.4429;5.2618;7.5693;7.0E-4;0.5608;-0.3676;-51.0;-275.6;-1042.5;304.84;-31.01;-24.13;;30.047;19.519867;-96.915565;;;203.22581;91.4;80.0;3.0;25196;2014-11-08 13:54:23:585
4.1371;6.2823;8.4275;4.5192;6.225;6.9641;-0.3821;0.0573;1.4634;-52.7;-267.3;-1043.1;302.12;-36.86;-32.98;;30.187;19.519867;-96.915565;;;203.22581;91.4;80.0;3.0;25697;2014-11-08 13:54:24:086
5.8226;7.2017;6.4355;4.8194;5.6628;7.5236;1.0032;1.5388;-1.088;-49.8;-264.3;-1050.6;300.05;-32.21;-29.67;;30.213;19.519867;-96.915565;;;203.22581;91.4;80.0;3.0;26197;2014-11-08 13:54:24:586
3.8307;7.6614;7.9678;4.4984;6.308;6.7353;-0.6677;1.3534;1.2325;-50.3;-264.3;-1048.3;294.21;-37.77;-41.33;;29.841;19.519867;-96.915565;;;203.22581;91.4;80.0;3.0;26715;2014-11-08 13:54:25:104
5.6694;7.6614;6.2823;4.3043;6.3121;7.4502;1.2118;1.196;-1.0146;-44.2;-262.7;-1056.4;304.89;-36.26;-30.02;;30.164;19.519867;-96.915565;;;203.22581;91.4;80.0;3.0;27215;2014-11-08 13:54:25:604
4.1371;7.5081;7.5081;5.4359;6.6167;6.3395;-2.2181;-0.3344;0.2492;-45.6;-261.6;-1055.1;295.48;-38.39;-40.61;;29.899;19.519867;-96.915565;;;203.22581;91.4;80.0;3.0;27715;2014-11-08 13:54:26:104
4.9033;7.0484;6.742;4.4992;6.7156;7.2832;0.4041;0.3329;-0.5412;-35.7;-261.9;-1063.1;309.28;-39.29;-29.07;;30.288;19.519867;-96.915565;;;203.22581;91.4;80.0;3.0;28225;2014-11-08 13:54:26:614
5.2097;6.2823;8.2743;3.693;6.2573;6.3095;1.2857;0.0819;2.017;-39.5;-258.4;-1064.3;303.24;-41.54;-36.22;;31.288;19.519867;-96.915565;;;203.22581;91.4;80.0;3.0;28725;2014-11-08 13:54:27:114
7.5081;4.5968;6.5888;6.2962;4.5852;7.7057;1.2119;0.0116;-1.1169;-31.6;-263.4;-1068.3;294.73;-31.2;-32.39;;31.563;19.519867;-96.915565;;;203.22581;91.4;80.0;3.0;29386;2014-11-08 13:54:27:775
6.1291;6.4355;4.75;7.2244;5.9837;4.7796;-1.0954;0.4518;-0.0296;-7.7;-14.4;-35.9;273.24;-33.37;-52.83;;32.192;19.519867;-96.915565;;;203.22581;91.4;80.0;3.0;29886;2014-11-08 13:54:28:275
6.8952;5.5162;4.4436;6.5093;6.7446;4.7648;0.3859;-1.2284;-0.3213;-6.9;-12.1;-36.8;288.16;-39.9;-53.8;;64.392;19.519867;-96.915565;;;203.22581;91.4;80.0;3.0;30397;2014-11-08 13:54:28:786
6.4355;6.742;5.2097;6.95;5.8937;4.6404;-0.6921;0.3614;0.7004;-32.2;4.0;-32.1;342.96;-35.19;-56.27;;33.243;19.519867;-96.915565;;;203.22581;91.4;80.0;3.0;30900;2014-11-08 13:54:29:289
5.6694;6.5888;4.75;6.5394;6.5429;5.371;-0.8939;0.163;-0.5736;-40.0;1.0;-22.8;14.89;-37.71;-50.6;;33.546;19.519867;-96.915565;;;203.22581;91.4;80.0;3.0;31400;2014-11-08 13:54:29:789
5.0565;4.75;5.5162;6.162;6.7743;5.5094;-1.1055;-2.0242;0.0068;-45.3;-3.4;-10.7;41.02;-39.84;-49.3;;34.568;19.519867;-96.915565;;;203.22581;91.4;80.0;3.0;31901;2014-11-08 13:54:30:290
7.0484;5.0565;5.5162;5.8135;6.3958;6.0765;1.0817;-1.3393;-1.4797;-46.8;-8.1;-6.5;67.8;-33.34;-41.21;;33.475;19.519867;-96.915565;;;203.22581;91.4;80.0;3.0;32405;2014-11-08 13:54:30:794
5.9759;7.6614;5.2097;6.7424;5.5729;4.811;-1.2262;1.3223;0.0922;-47.5;-11.4;-4.6;53.32;-35.61;-54.06;;32.777;19.519867;-96.915565;;;203.22581;91.4;80.0;3.0;32905;2014-11-08 13:54:31:294
5.5162;7.6614;3.6774;5.2273;7.9788;3.3395;-0.0176;-0.3174;0.338;-48.1;-17.7;-4.3;55.63;-48.37;-51.88;;32.821;19.519867;-96.915565;;;203.22581;91.4;80.0;3.0;33406;2014-11-08 13:54:31:795
6.1291;7.6614;3.8307;5.4862;7.8087;3.1928;0.03;-0.3006;0.4847;-42.0;-17.3;-17.9;15.28;-50.89;-59.8;;34.745;19.519867;-96.915565;;;203.22581;91.4;80.0;3.0;33907;2014-11-08 13:54:32:296
6.1291;7.6614;3.8307;5.4862;7.8087;3.1928;0.03;-0.3006;0.4847;-40.3;-17.7;-18.4;11.46;-50.89;-59.8;;31.474;19.519867;-96.915565;;;203.22581;91.4;80.0;3.0;34407;2014-11-08 13:54:32:796
6.1291;7.6614;3.8307;5.4862;7.8087;3.1928;0.03;-0.3006;0.4847;-40.0;-12.3;-17.5;11.84;-50.89;-59.8;;32.76;19.519867;-96.915565;;;203.22581;91.4;80.0;3.0;34907;2014-11-08 13:54:33:296
6.1291;7.6614;3.8307;5.4862;7.8087;3.1928;0.03;-0.3006;0.4847;-37.9;-11.1;-17.7;7.92;-50.89;-59.8;;31.378;19.519867;-96.915565;;;203.22581;91.4;80.0;3.0;35408;2014-11-08 13:54:33:797
6.1291;7.6614;3.8307;5.4862;7.8087;3.1928;0.03;-0.3006;0.4847;-33.5;-11.7;-21.1;0.77;-50.89;-59.8;;35.717;19.519867;-96.915565;;;203.22581;91.4;80.0;3.0;35908;2014-11-08 13:54:34:297
6.1291;7.6614;3.8307;5.4862;7.8087;3.1928;0.03;-0.3006;0.4847;-30.7;-11.5;-21.9;351.33;-50.89;-59.8;;31.293;19.519867;-96.915565;;;203.22581;91.4;80.0;3.0;36409;2014-11-08 13:54:34:798
6.1291;7.6614;3.8307;5.4862;7.8087;3.1928;0.03;-0.3006;0.4847;-29.5;-10.5;-22.9;349.78;-50.89;-59.8;;32.502;19.519867;-96.915565;;;203.22581;91.4;80.0;3.0;36909;2014-11-08 13:54:35:298
6.1291;7.6614;3.8307;5.4862;7.8087;3.1928;0.03;-0.3006;0.4847;-28.7;-16.1;-17.9;348.15;-50.89;-59.8;;31.392;19.519867;-96.915565;;;203.22581;91.4;80.0;3.0;37409;2014-11-08 13:54:35:798
6.1291;7.6614;3.8307;5.4862;7.8087;3.1928;0.03;-0.3006;0.4847;-30.5;0.5;-20.2;355.6;-50.89;-59.8;;35.199;19.519867;-96.915565;;;203.22581;91.4;80.0;3.0;37909;2014-11-08 13:54:36:298
6.1291;7.6614;3.8307;5.4862;7.8087;3.1928;0.03;-0.3006;0.4847;-21.1;13.9;-25.4;341.32;-50.89;-59.8;;32.112;19.519867;-96.915565;;;203.22581;91.4;80.0;3.0;38409;2014-11-08 13:54:36:798
6.1291;7.6614;3.8307;5.4862;7.8087;3.1928;0.03;-0.3006;0.4847;-18.2;21.2;-16.7;349.99;-50.89;-59.8;;33.387;19.519867;-96.915565;;;203.22581;91.4;80.0;3.0;38909;2014-11-08 13:54:37:298
6.1291;7.6614;3.8307;5.4862;7.8087;3.1928;0.03;-0.3006;0.4847;-14.4;24.8;-16.6;350.29;-50.89;-59.8;;31.729;19.519867;-96.915565;;;203.22581;91.4;80.0;3.0;39410;2014-11-08 13:54:37:799
6.1291;7.6614;3.8307;5.4862;7.8087;3.1928;0.03;-0.3006;0.4847;-20.8;21.3;-13.3;358.81;-50.89;-59.8;;34.697;19.519867;-96.915565;;;203.22581;91.4;80.0;3.0;40174;2014-11-08 13:54:38:563
6.1291;7.6614;3.8307;5.4862;7.8087;3.1928;0.03;-0.3006;0.4847;-9.3;24.8;-12.8;345.99;-50.89;-59.8;;55.514;19.519867;-96.915565;;;203.22581;91.4;80.0;3.0;40674;2014-11-08 13:54:39:063
6.1291;7.6614;3.8307;5.4862;7.8087;3.1928;0.03;-0.3006;0.4847;-9.7;22.0;-14.5;344.81;-50.89;-59.8;;33.152;19.519867;-96.915565;;;203.22581;91.4;80.0;3.0;41174;2014-11-08 13:54:39:563
6.1291;7.6614;3.8307;5.4862;7.8087;3.1928;0.03;-0.3006;0.4847;-4.0;23.2;-11.5;338.98;-50.89;-59.8;;31.429;19.519867;-96.915565;;;203.22581;91.4;80.0;3.0;41674;2014-11-08 13:54:40:063
6.1291;7.6614;3.8307;5.4862;7.8087;3.1928;0.03;-0.3006;0.4847;-7.2;22.4;-13.3;341.93;-50.89;-59.8;;33.557;19.519867;-96.915565;;;203.22581;91.4;80.0;3.0;42174;2014-11-08 13:54:40:563
6.1291;7.6614;3.8307;5.4862;7.8087;3.1928;0.03;-0.3006;0.4847;-5.9;22.6;-11.8;340.79;-50.89;-59.8;;32.894;19.519867;-96.915565;;;203.22581;91.4;80.0;3.0;42674;2014-11-08 13:54:41:063
6.1291;7.6614;3.8307;5.4862;7.8087;3.1928;0.03;-0.3006;0.4847;-5.8;22.6;-12.4;342.42;-50.89;-59.8;;33.584;19.519867;-96.915565;;;203.22581;91.4;80.0;3.0;43174;2014-11-08 13:54:41:563
6.1291;7.6614;3.8307;5.4862;7.8087;3.1928;0.03;-0.3006;0.4847;-3.4;23.2;-11.7;337.32;-50.89;-59.8;;33.816;19.519867;-96.915565;;;203.22581;91.4;80.0;3.0;43675;2014-11-08 13:54:42:064
6.1291;7.6614;3.8307;5.4862;7.8087;3.1928;0.03;-0.3006;0.4847;-1.1;24.5;-12.0;334.96;-50.89;-59.8;;33.017;19.519867;-96.915565;;;203.22581;91.4;80.0;3.0;44176;2014-11-08 13:54:42:565
6.1291;7.6614;3.8307;5.4862;7.8087;3.1928;0.03;-0.3006;0.4847;-2.6;18.7;-20.5;325.86;-50.89;-59.8;;32.638;19.519867;-96.915565;;;203.22581;91.4;80.0;3.0;44676;2014-11-08 13:54:43:065
6.1291;7.6614;3.8307;5.4862;7.8087;3.1928;0.03;-0.3006;0.4847;-3.5;19.7;-17.4;325.26;-50.89;-59.8;;32.148;19.519867;-96.915565;;;203.22581;91.4;80.0;3.0;45177;2014-11-08 13:54:43:566
6.1291;7.6614;3.8307;5.4862;7.8087;3.1928;0.03;-0.3006;0.4847;-3.4;20.1;-13.9;330.78;-50.89;-59.8;0.0;32.104;19.519867;-96.915565;;;203.22581;91.4;80.0;3.0;45677;2014-11-08 13:54:44:066
6.1291;7.6614;3.8307;5.4862;7.8087;3.1928;0.03;-0.3006;0.4847;-2.0;19.8;-16.1;327.6;-50.89;-59.8;0.0;31.767;19.519867;-96.915565;;;203.22581;91.4;80.0;3.0;46178;2014-11-08 13:54:44:567
6.1291;7.6614;3.8307;5.4862;7.8087;3.1928;0.03;-0.3006;0.4847;4.6;26.4;5.6;14.01;-50.89;-59.8;0.4;32.93;19.519867;-96.915565;;;203.22581;91.4;80.0;3.0;46678;2014-11-08 13:54:45:067
6.1291;7.6614;3.8307;5.4862;7.8087;3.1928;0.03;-0.3006;0.4847;4.6;45.2;2.6;0.19;-50.89;-59.8;0.4;33.537;19.519867;-96.915565;;;203.22581;91.4;80.0;3.0;47178;2014-11-08 13:54:45:567
6.1291;7.6614;3.8307;5.4862;7.8087;3.1928;0.03;-0.3006;0.4847;5.7;43.5;4.9;354.87;-50.89;-59.8;0.4;33.456;19.519867;-96.915565;;;203.22581;91.4;80.0;3.0;47680;2014-11-08 13:54:46:069
6.1291;7.6614;3.8307;5.4862;7.8087;3.1928;0.03;-0.3006;0.4847;10.4;35.8;21.2;59.25;-50.89;-59.8;0.4;34.667;19.519867;-96.915565;;;203.22581;91.4;80.0;3.0;48181;2014-11-08 13:54:46:570
6.1291;7.6614;3.8307;5.4862;7.8087;3.1928;0.03;-0.3006;0.4847;-22.8;31.5;12.7;51.01;-50.89;-59.8;0.4;34.376;19.519867;-96.915565;;;203.22581;91.4;80.0;3.0;48681;2014-11-08 13:54:47:070
6.1291;7.6614;3.8307;5.4862;7.8087;3.1928;0.03;-0.3006;0.4847;-8.7;15.1;-32.3;320.43;-50.89;-59.8;0.0;34.407;19.519867;-96.915565;;;203.22581;91.4;80.0;3.0;49181;2014-11-08 13:54:47:570
6.1291;7.6614;3.8307;5.4862;7.8087;3.1928;0.03;-0.3006;0.4847;-2.6;10.4;-35.5;307.41;-50.89;-59.8;0.0;37.765;19.519867;-96.915565;;;203.22581;91.4;80.0;3.0;49681;2014-11-08 13:54:48:070
6.1291;7.6614;3.8307;5.4862;7.8087;3.1928;0.03;-0.3006;0.4847;3.3;12.3;-34.0;301.36;-50.89;-59.8;0.0;33.535;19.519867;-96.915565;;;203.22581;91.4;80.0;3.0;50181;2014-11-08 13:54:48:570
6.1291;7.6614;3.8307;5.4862;7.8087;3.1928;0.03;-0.3006;0.4847;9.1;-1.5;-35.2;281.37;-50.89;-59.8;0.0;39.89;19.519867;-96.915565;;;203.22581;91.4;80.0;3.0;50681;2014-11-08 13:54:49:070
6.1291;7.6614;3.8307;5.4862;7.8087;3.1928;0.03;-0.3006;0.4847;10.7;-4.0;-35.2;276.0;-50.89;-59.8;0.0;39.89;19.519867;-96.915565;;;203.22581;91.4;80.0;3.0;51391;2014-11-08 13:54:49:780
0.6129;5.0565;7.3549;5.1313;5.4942;9.6191;-4.0112;1.0693;-0.5586;-32.9;-3.4;-19.3;68.03;-18.45;-30.34;0.4;63.333;19.519867;-96.915565;;;203.22581;93.2;80.0;3.0;51903;2014-11-08 13:54:50:292
1.6855;8.121;7.8146;0.7793;6.3591;6.6784;0.4307;0.173;0.9619;-32.2;-18.6;-2.8;107.55;-39.33;-8.34;0.4;61.775;19.519867;-96.915565;;;203.22581;93.2;80.0;3.0;52403;2014-11-08 13:54:50:792
3.0645;7.6614;6.2823;2.2298;7.1261;7.4113;0.9879;0.6885;-1.129;-30.0;-23.2;0.4;113.65;-42.7;-11.4;0.4;39.322;19.519867;-96.915565;;;203.22581;93.2;80.0;3.0;52937;2014-11-08 13:54:51:326
1.2258;5.8226;8.2743;2.475;7.4978;7.0698;-1.2492;-1.6752;1.2045;-28.0;-24.6;0.8;110.73;-45.67;-24.55;0.4;33.886;19.519867;-96.915565;;;203.22581;93.2;80.0;3.0;53452;2014-11-08 13:54:51:841
2.6049;7.6614;7.9678;2.008;6.4743;7.2821;0.5969;1.187;0.6857;-28.2;-24.0;0.5;117.47;-41.28;-13.83;0.4;34.055;19.519867;-96.915565;;;203.22581;93.2;80.0;3.0;54202;2014-11-08 13:54:52:591
7.3549;3.5242;8.5807;6.8489;3.92;8.0967;0.506;-0.3958;0.484;-33.3;17.3;-8.6;44.64;-26.28;-27.35;0.0;61.798;19.519867;-96.915565;;;203.22581;93.2;80.0;3.0;54732;2014-11-08 13:54:53:121
6.2823;1.5323;9.1936;5.4554;2.103;8.1716;0.8269;-0.5707;1.022;-29.2;20.5;-14.3;31.82;-12.08;-33.73;0.0;36.545;19.519867;-96.915565;;;203.22581;93.2;80.0;3.0;55238;2014-11-08 13:54:53:627
7.2017;0.9194;7.3549;5.6075;3.1692;8.7171;1.5942;-2.2498;-1.3622;-29.7;19.8;-13.5;32.0;-12.7;-37.07;0.0;64.078;19.520044;-96.9156;;;125.80645;93.2;80.0;3.0;55775;2014-11-08 13:54:54:164
5.5162;4.75;7.2017;7.6547;0.6493;6.9631;-2.1385;4.1007;0.2386;-34.9;2.7;-11.5;74.19;-3.22;-44.9;0.0;36.703;19.520044;-96.9156;;;125.80645;93.2;80.0;3.0;56275;2014-11-08 13:54:54:664
1.992;6.8952;6.1291;2.5089;7.1645;7.9471;-0.517;-0.2693;-1.818;-29.4;-20.1;-8.2;112.48;-25.79;-35.66;0.0;35.611;19.520044;-96.9156;;;125.80645;93.2;80.0;3.0;56775;2014-11-08 13:54:55:164
-0.3065;8.121;6.1291;1.0477;7.3399;6.6255;-1.3542;0.7811;-0.4964;-23.9;-27.4;-2.6;121.31;-45.77;-8.49;0.4;42.809;19.520044;-96.9156;;;125.80645;93.2;80.0;3.0;57275;2014-11-08 13:54:55:664
-0.3065;8.121;6.2823;-0.3349;8.9536;5.1011;-0.1085;-0.9568;1.2071;-16.7;-31.0;3.9;139.86;-60.28;3.76;0.4;41.827;19.520044;-96.9156;;;125.80645;93.2;80.0;3.0;57775;2014-11-08 13:54:56:164
0.1532;7.9678;6.1291;-0.4145;8.3067;6.1336;1.0627;-1.2791;0.7312;-16.5;-30.9;4.7;146.15;-53.54;3.86;0.4;42.863;19.520044;-96.9156;;;125.80645;93.2;80.0;3.0;58275;2014-11-08 13:54:56:664
1.0726;7.9678;6.5888;0.6494;7.3772;6.7869;0.4232;0.5906;-0.1981;-21.5;-30.1;-1.9;134.56;-50.72;-2.53;0.4;38.517;19.520044;-96.9156;;;125.80645;93.2;80.0;3.0;58799;2014-11-08 13:54:57:188
0.1532;7.0484;7.5081;0.2471;7.6154;7.2955;-0.0939;-0.567;0.2126;-24.4;-25.3;-8.6;113.34;-46.21;-1.94;0.4;32.701;19.520044;-96.9156;;;125.80645;93.2;80.0;3.0;59304;2014-11-08 13:54:57:693
-0.1532;7.2017;7.6614;0.1948;7.4037;7.3967;-0.348;-0.202;0.2647;-24.3;-25.3;-7.7;115.94;-45.02;-1.51;0.4;37.672;19.520044;-96.9156;;;125.80645;93.2;80.0;3.0;59805;2014-11-08 13:54:58:194
0.0;7.3549;7.8146;-0.0909;6.7394;7.7254;0.0909;0.6155;0.0891;-24.9;-24.1;-9.4;116.22;-41.1;0.67;0.4;37.557;19.520044;-96.9156;;;125.80645;93.2;80.0;3.0;60307;2014-11-08 13:54:58:696
-0.3065;7.5081;7.5081;0.0062;7.4427;7.3577;-0.3127;0.0654;0.1504;-25.1;-23.7;-9.8;111.3;-45.33;-0.05;0.4;36.059;19.520044;-96.9156;;;125.80645;93.2;80.0;3.0;60809;2014-11-08 13:54:59:198
0.7661;7.3549;7.5081;-0.0687;7.5554;7.2444;0.8348;-0.2005;0.2638;-25.5;-23.3;-10.0;110.0;-46.29;1.69;0.4;38.741;19.520044;-96.9156;;;125.80645;93.2;80.0;3.0;61310;2014-11-08 13:54:59:699
0.9194;7.5081;7.0484;0.951;7.3326;7.3458;-0.0316;0.1755;-0.2974;-26.3;-22.9;-9.4;108.23;-44.39;-6.28;0.4;34.061;19.520044;-96.9156;;;125.80645;93.2;80.0;3.0;61810;2014-11-08 13:55:00:199
0.7661;7.6614;7.0484;0.423;7.8522;6.4651;0.3431;-0.1908;0.5834;-26.7;-22.5;-8.6;102.23;-50.47;-3.74;0.4;33.444;19.520044;-96.9156;;;125.80645;93.2;80.0;3.0;62313;2014-11-08 13:55:00:702
0.9194;7.6614;7.0484;1.0124;7.6104;7.2002;-0.0931;0.0509;-0.1517;-27.1;-22.3;-7.9;104.76;-46.31;-8.0;0.4;33.229;19.520044;-96.9156;;;125.80645;93.2;80.0;3.0;62814;2014-11-08 13:55:01:203
0.9194;7.6614;6.5888;0.8628;7.7755;6.8384;0.0566;-0.1142;-0.2496;-27.1;-22.5;-7.1;105.02;-47.95;-7.58;0.4;33.337;19.520044;-96.9156;;;125.80645;93.2;80.0;3.0;63315;2014-11-08 13:55:01:704
0.6129;7.6614;6.8952;0.8546;7.6718;6.9609;-0.0884;-0.1637;0.2407;-27.1;-22.7;-6.9;107.06;-47.57;-7.0;0.4;33.06;19.520044;-96.9156;;;125.80645;93.2;80.0;3.0;63816;2014-11-08 13:55:02:205
0.6129;7.8146;6.742;0.6121;7.8084;6.6894;8.0E-4;0.0062;0.0525;-26.9;-22.9;-6.9;107.21;-48.38;-5.56;0.4;33.919;19.520044;-96.9156;;;125.80645;93.2;80.0;3.0;64316;2014-11-08 13:55:02:705
0.7661;7.8146;7.0484;0.6216;7.6763;7.042;-0.0087;0.1383;-0.1468;-26.7;-23.1;-7.1;108.33;-47.36;-5.04;0.4;33.202;19.520044;-96.9156;;;125.80645;93.2;80.0;3.0;64818;2014-11-08 13:55:03:207
0.3065;7.9678;6.742;0.293;8.1025;6.4435;0.0135;-0.1347;0.2985;-26.5;-23.3;-7.1;107.79;-49.13;-4.82;0.4;33.139;19.520044;-96.9156;;;125.80645;93.2;80.0;3.0;65321;2014-11-08 13:55:03:710
0.9194;7.9678;6.5888;0.2804;7.9844;6.5496;0.7922;0.1367;0.0392;-26.5;-22.9;-7.7;106.85;-50.88;-1.4;0.4;33.89;19.520044;-96.9156;;;125.80645;93.2;80.0;3.0;65821;2014-11-08 13:55:04:210
1.6855;8.4275;5.8226;1.1588;8.0386;6.275;0.5267;0.3889;-0.4524;-27.3;-22.1;-7.9;98.33;-51.56;-10.46;0.4;33.005;19.520044;-96.9156;;;125.80645;93.2;80.0;3.0;66322;2014-11-08 13:55:04:711
0.6129;8.4275;5.9759;1.3152;8.3631;5.9768;-0.7023;0.0644;-9.0E-4;-27.7;-21.9;-5.5;99.07;-53.8;-12.41;0.4;32.741;19.520044;-96.9156;;;125.80645;93.2;80.0;3.0;66822;2014-11-08 13:55:05:211
1.379;7.9678;6.5888;0.9941;8.1446;6.9323;0.385;-0.1768;-0.3435;-25.0;-25.8;-4.3;114.97;-49.31;-8.16;0.4;31.789;19.520044;-96.9156;;;125.80645;93.2;80.0;3.0;67322;2014-11-08 13:55:05:711
0.6129;8.4275;5.6694;0.6905;7.772;6.6737;-0.0776;0.6555;-1.0043;-21.5;-28.4;2.1;130.74;-49.2;-5.91;0.4;32.827;19.520044;-96.9156;;;125.80645;93.2;80.0;3.0;67919;2014-11-08 13:55:06:308
1.8387;8.2743;6.4355;1.0731;7.9772;6.221;0.7656;0.297;0.2145;-20.8;-29.0;2.9;129.56;-51.64;-9.79;0.4;33.188;19.520044;-96.9156;;;125.80645;93.2;80.0;3.0;68419;2014-11-08 13:55:06:808
5.5162;5.2097;7.5081;1.7146;7.796;6.4101;3.8016;-2.5862;1.098;-32.3;-18.4;3.6;104.59;-49.6;-14.97;0.4;35.242;19.520044;-96.9156;;;125.80645;93.2;80.0;3.0;68919;2014-11-08 13:55:07:308
5.3629;0.9194;8.5807;7.6835;1.1845;7.9444;-2.3206;-0.2651;0.6363;-37.7;-2.7;1.9;80.75;-20.03;-39.7;0.0;34.839;19.520044;-96.9156;;;125.80645;93.2;80.0;3.0;69420;2014-11-08 13:55:07:809
6.1291;0.7661;8.2743;5.8911;0.2876;8.3503;0.238;0.4786;-0.0761;-37.7;6.6;-0.4;76.92;0.09;-37.97;0.4;33.045;19.520044;-96.9156;;;125.80645;93.2;80.0;3.0;69921;2014-11-08 13:55:08:310
6.8952;2.1452;7.5081;6.7832;0.7475;7.8704;0.112;1.3977;-0.3623;-38.2;-4.4;-1.5;91.57;-2.86;-37.02;0.4;33.602;19.520044;-96.9156;;;125.80645;93.2;80.0;3.0;70422;2014-11-08 13:55:08:811
5.0565;3.9839;8.4275;5.527;1.8042;8.3643;-0.4705;2.1797;0.0632;-38.2;-9.1;-4.2;102.25;-8.52;-39.78;0.4;33.781;19.520044;-96.9156;;;125.80645;93.2;80.0;3.0;70923;2014-11-08 13:55:09:312
5.5162;2.4516;9.5001;5.0434;3.4866;8.5696;0.4728;-1.0349;0.9304;-37.8;0.8;-11.2;70.2;-19.65;-30.81;0.4;33.365;19.520044;-96.9156;;;125.80645;93.2;80.0;3.0;71423;2014-11-08 13:55:09:812
5.6694;1.992;8.2743;4.5285;3.5124;8.4934;1.1409;-1.5204;-0.2192;-35.1;10.8;-13.5;51.2;-20.05;-28.07;0.4;39.16;19.520044;-96.9156;;;125.80645;93.2;80.0;3.0;71923;2014-11-08 13:55:10:312
5.6694;1.992;7.6614;5.2004;2.49;8.5247;0.469;-0.498;-0.8634;-34.1;12.5;-13.1;49.37;-13.95;-32.34;0.4;36.85;19.520044;-96.9156;;;125.80645;93.2;80.0;3.0;72424;2014-11-08 13:55:10:813
4.1371;3.6774;7.2017;6.0361;2.1359;8.6945;-1.899;1.5415;-1.4928;-33.6;9.1;-14.1;55.11;-9.71;-34.38;0.4;35.393;19.520044;-96.9156;;;125.80645;93.2;80.0;3.0;72924;2014-11-08 13:55:11:313
6.8952;2.9113;8.5807;4.8512;3.4585;8.1609;2.044;-0.5472;0.4198;-37.6;0.4;-7.5;73.34;-20.02;-30.73;0.4;34.151;19.520044;-96.9156;;;125.80645;93.2;80.0;3.0;73424;2014-11-08 13:55:11:813
5.5162;3.371;8.121;5.4491;3.3669;8.1033;0.0671;0.0041;0.0177;-37.0;3.3;-11.8;61.91;-19.02;-33.92;0.4;32.183;19.520044;-96.9156;;;125.80645;93.2;80.0;3.0;73924;2014-11-08 13:55:12:313
4.2904;5.5162;6.8952;5.8462;3.4066;8.132;-1.5559;2.1096;-1.2368;-37.4;4.2;-13.6;56.63;-18.78;-35.71;0.4;32.607;19.520044;-96.9156;;;125.80645;93.2;80.0;3.0;74425;2014-11-08 13:55:12:814
4.4436;4.5968;7.2017;5.0977;5.5269;7.3987;-0.6541;-0.9301;-0.197;-36.0;6.1;-16.6;42.07;-31.77;-33.3;0.4;32.516;19.520044;-96.9156;;;125.80645;93.2;80.0;3.0;74926;2014-11-08 13:55:13:315
6.8952;5.8226;7.5081;5.4554;4.6535;6.9955;1.4398;1.1691;0.5126;-31.5;7.2;-23.6;23.56;-27.37;-37.03;0.4;32.701;19.520044;-96.9156;;;125.80645;93.2;80.0;3.0;75426;2014-11-08 13:55:13:815
6.742;5.9759;5.9759;4.8845;6.3584;6.6708;1.8575;-0.3825;-0.6949;-26.4;7.4;-28.9;4.61;-36.46;-38.47;0.4;32.371;19.520044;-96.9156;;;125.80645;93.2;80.0;3.0;75927;2014-11-08 13:55:14:316
5.5162;4.9033;5.5162;7.0174;4.9828;5.9931;-1.5013;-0.0796;-0.4769;-26.1;11.7;-28.3;0.71;-31.71;-44.45;0.4;31.798;19.520044;-96.9156;;;125.80645;93.2;80.0;3.0;76427;2014-11-08 13:55:14:816
7.2017;2.1452;5.5162;7.5145;4.3693;5.6868;-0.3128;-2.2241;-0.1706;-21.1;14.5;-30.6;345.72;-27.51;-51.1;0.4;33.506;19.520044;-96.9156;;;125.80645;93.2;80.0;3.0;76928;2014-11-08 13:55:15:317
6.1291;1.0726;6.4355;8.2114;1.126;6.6818;-2.0823;-0.0534;-0.2463;-16.6;18.9;-32.5;331.04;-10.28;-50.12;0.4;31.532;19.520044;-96.9156;;;125.80645;93.2;80.0;3.0;77428;2014-11-08 13:55:15:817
8.8872;1.992;8.2743;7.3353;0.9925;6.6552;1.5519;0.9994;1.619;-16.8;21.9;-33.4;331.25;-4.91;-47.05;0.0;31.428;19.520044;-96.9156;;;125.80645;93.2;80.0;3.0;77928;2014-11-08 13:55:16:317
7.9678;-0.6129;6.742;6.9701;0.4004;7.2686;0.9977;-1.0133;-0.5266;-16.4;25.5;-30.4;341.33;-2.28;-43.8;0.0;31.633;19.520044;-96.9156;;;125.80645;93.2;80.0;3.0;78428;2014-11-08 13:55:16:817
7.6614;-0.6129;7.3549;6.5141;-0.7202;7.0439;1.1473;0.1073;0.311;-16.4;25.2;-30.7;337.46;4.29;-42.76;0.0;32.305;19.520044;-96.9156;;;125.80645;93.2;80.0;3.0;78928;2014-11-08 13:55:17:317
6.1291;-0.7661;8.8872;6.1673;0.298;8.7954;-0.0383;-1.0641;0.0918;-12.1;25.6;-31.6;337.41;-0.26;-39.12;0.0;32.167;19.520044;-96.9156;;;125.80645;93.2;80.0;3.0;79428;2014-11-08 13:55:17:817
6.1291;-0.6129;7.6614;6.1867;-0.8696;8.4462;-0.0576;0.2567;-0.7849;-12.3;25.8;-31.7;340.79;4.11;-34.45;0.0;32.506;19.520044;-96.9156;;;125.80645;93.2;80.0;3.0;79928;2014-11-08 13:55:18:317
6.742;-0.3065;7.3549;6.5442;-0.5433;7.436;0.1977;0.2369;-0.0811;-14.3;26.0;-31.3;337.54;4.11;-38.48;0.0;31.678;19.520044;-96.9156;;;125.80645;93.2;80.0;3.0;80429;2014-11-08 13:55:18:818
7.5081;-0.1532;7.2017;7.137;-0.3193;7.2933;0.3712;0.166;-0.0916;-15.1;25.3;-30.5;338.3;2.24;-43.63;0.0;32.033;19.520044;-96.9156;;;125.80645;93.2;80.0;3.0;80929;2014-11-08 13:55:19:318
7.3549;-0.1532;7.5081;7.3762;-0.1505;7.3987;-0.0213;-0.0028;0.1094;-16.0;24.7;-30.3;338.12;0.83;-44.91;0.0;32.016;19.520044;-96.9156;;;125.80645;93.2;80.0;3.0;81431;2014-11-08 13:55:19:820
7.2017;-0.6129;7.3549;7.4561;-0.6438;7.3555;-0.2545;0.1841;-6.0E-4;-16.0;24.5;-30.5;337.72;1.95;-44.8;0.0;33.315;19.520044;-96.9156;;;125.80645;93.2;80.0;3.0;81931;2014-11-08 13:55:20:320
7.2017;-0.6129;7.8146;7.1626;-0.4443;7.3222;0.0391;-0.1686;0.4923;-15.6;24.9;-30.1;337.09;3.3;-44.75;0.0;33.259;19.520044;-96.9156;;;125.80645;93.2;80.0;3.0;82431;2014-11-08 13:55:20:820
8.121;-0.3065;6.4355;7.5156;-0.3045;6.6876;0.6055;-0.002;-0.2521;-17.7;24.3;-30.3;335.55;1.73;-48.34;0.0;35.139;19.520044;-96.9156;;;125.80645;93.2;80.0;3.0;82932;2014-11-08 13:55:21:321
7.6614;-0.4597;6.5888;8.007;-0.01;6.6097;-0.3457;-0.4497;-0.0209;-18.4;24.6;-29.0;335.53;0.06;-50.46;0.0;32.27;19.520044;-96.9156;;;125.80645;93.2;80.0;3.0;83434;2014-11-08 13:55:21:823
7.6614;-0.3065;6.742;7.8823;-0.429;6.6561;-0.221;0.1225;0.0858;-18.8;25.0;-28.4;338.86;2.38;-49.82;0.0;32.427;19.520044;-96.9156;;;125.80645;93.2;80.0;3.0;83934;2014-11-08 13:55:22:323
7.6614;-0.4597;6.742;7.6717;-0.5111;6.7512;-0.0103;0.0514;-0.0092;-18.2;25.7;-28.0;339.46;2.86;-48.65;0.0;32.888;19.520044;-96.9156;;;125.80645;93.2;80.0;3.0;84435;2014-11-08 13:55:22:824
7.5081;-0.7661;6.742;7.6439;-0.7016;6.7863;-0.1358;-0.0645;-0.0443;-17.8;25.9;-28.2;339.38;3.41;-48.51;0.0;32.541;19.520044;-96.9156;;;125.80645;93.2;80.0;3.0;84936;2014-11-08 13:55:23:325
7.6614;-0.7661;6.8952;7.5939;-0.8116;6.7791;0.0674;0.0455;0.1162;-17.6;26.5;-28.4;339.93;4.56;-48.24;0.0;32.177;19.520044;-96.9156;;;125.80645;93.2;80.0;3.0;85436;2014-11-08 13:55:23:825
7.6614;-0.9194;6.742;7.6311;-0.8779;6.7971;0.0303;-0.0415;-0.0552;-17.8;26.9;-28.0;339.91;4.76;-48.18;0.0;33.337;19.520044;-96.9156;;;125.80645;93.2;80.0;3.0;85936;2014-11-08 13:55:24:325
7.5081;-0.7661;6.742;7.6632;-0.9013;6.7381;-0.1551;0.1352;0.0039;-18.0;27.1;-27.8;339.18;5.1;-48.68;0.0;32.615;19.520044;-96.9156;;;125.80645;93.2;80.0;3.0;86436;2014-11-08 13:55:24:825
7.5081;-0.9194;6.742;7.6127;-0.8224;6.8259;-0.085;0.04;0.0917;-18.0;27.1;-27.8;339.78;4.59;-48.37;0.0;34.332;19.520044;-96.9156;;;125.80645;93.2;80.0;3.0;86936;2014-11-08 13:55:25:325
7.5081;-0.7661;6.8952;7.5584;-0.8591;6.7737;-0.0503;0.093;0.1215;-17.8;27.1;-27.8;339.93;4.84;-48.13;0.0;32.606;19.520044;-96.9156;;;125.80645;93.2;80.0;3.0;87436;2014-11-08 13:55:25:825
7.5081;-0.7661;6.742;7.6814;-0.8407;6.9541;-0.1733;0.0745;-0.2121;-17.6;27.1;-28.0;340.36;4.64;-47.84;0.0;32.976;19.520044;-96.9156;;;125.80645;93.2;80.0;3.0;88178;2014-11-08 13:55:26:567
7.5081;-0.7661;6.742;7.6769;-0.7395;6.812;-0.1688;-0.0266;-0.0701;-17.6;27.1;-28.0;339.98;4.19;-48.34;0.0;64.378;19.520044;-96.9156;;;125.80645;93.2;80.0;3.0;88679;2014-11-08 13:55:27:068
7.6614;-0.7661;6.742;7.7992;-0.5977;6.8552;-0.1379;-0.1684;-0.1132;-17.6;27.1;-28.0;340.02;3.71;-48.5;0.0;34.473;19.520044;-96.9156;;;125.80645;93.2;80.0;3.0;89179;2014-11-08 13:55:27:568
7.6614;-0.9194;6.8952;7.6283;-0.8286;6.769;0.033;-0.0908;0.1262;-17.8;27.1;-28.0;339.7;4.64;-48.42;0.0;34.186;19.520044;-96.9156;;;125.80645;93.2;80.0;3.0;89679;2014-11-08 13:55:28:068
7.6614;-0.9194;6.742;7.6668;-0.8668;6.7661;-0.0055;-0.0525;-0.0241;-18.0;27.1;-28.0;339.43;4.85;-48.57;0.0;33.1;19.520044;-96.9156;;;125.80645;93.2;80.0;3.0;90180;2014-11-08 13:55:28:569
7.6614;-0.7661;6.742;7.6583;-0.7966;6.727;0.0031;0.0305;0.015;-18.0;27.1;-28.0;339.43;4.85;-48.57;0.0;31.782;19.520044;-96.9156;;;125.80645;93.2;80.0;3.0;90681;2014-11-08 13:55:29:070
7.5081;-0.7661;7.0484;7.6594;-0.7742;6.7491;-0.1513;0.0081;0.2994;-18.0;27.1;-28.0;339.47;4.54;-48.66;0.0;31.973;19.520044;-96.9156;;;125.80645;93.2;80.0;3.0;91182;2014-11-08 13:55:29:571
3.8307;-0.7661;10.5727;5.0583;-0.3923;8.5349;-1.2276;-0.3738;2.0377;-3.0;26.5;-34.5;323.01;3.08;-39.21;0.0;32.167;19.520044;-96.9156;;;125.80645;93.2;80.0;3.0;91683;2014-11-08 13:55:30:072
-0.1532;1.8387;10.2662;2.0949;0.8943;12.068;-2.2481;0.9444;-1.8018;21.9;4.4;-34.4;277.21;0.5;-14.28;0.0;32.489;19.520044;-96.9156;;;125.80645;93.2;80.0;3.0;92183;2014-11-08 13:55:30:572
-0.1532;0.6129;9.5001;-0.1056;2.3026;9.8321;-0.0476;-1.6897;-0.332;16.5;-21.0;-33.0;253.11;-11.27;0.32;0.4;33.522;19.520044;-96.9156;;;125.80645;93.2;80.0;3.0;92684;2014-11-08 13:55:31:073
0.6129;6.2823;8.5807;0.6846;2.6365;10.1842;-0.0717;3.6459;-1.6035;12.3;-36.6;-17.7;199.96;-7.96;-1.35;0.4;32.515;19.520044;-96.9156;;;125.80645;93.2;80.0;3.0;93185;2014-11-08 13:55:31:574
0.6129;3.5242;9.3468;0.4858;6.4112;6.776;0.1271;-2.887;2.5709;-4.6;-42.5;-8.0;169.96;-43.51;-4.39;0.4;32.459;19.520044;-96.9156;;;125.80645;93.2;80.0;3.0;93689;2014-11-08 13:55:32:078
1.0726;1.2258;13.7904;-1.5836;1.8535;11.019;2.6562;-0.6277;2.7714;10.0;-16.7;-34.8;240.04;-18.78;3.09;0.4;33.279;19.520044;-96.9156;;;125.80645;93.2;80.0;3.0;94190;2014-11-08 13:55:32:579
-1.5323;-3.2178;10.113;0.2477;1.1195;12.8873;-1.7799;-4.3373;-2.7743;-0.9;-33.8;-24.2;179.03;-4.96;-1.1;0.4;32.885;19.520044;-96.9156;;;125.80645;93.2;80.0;3.0;94691;2014-11-08 13:55:33:080
1.8387;1.379;12.4114;0.2426;-1.6473;11.2005;1.5961;3.0264;1.2108;8.1;-24.3;-30.2;190.05;12.06;5.12;0.4;32.339;19.520044;-96.9156;;;125.80645;93.2;80.0;3.0;95329;2014-11-08 13:55:33:718
-0.1532;-3.2178;10.7259;-3.2853;-2.0877;11.8797;3.1321;-1.13;-1.1538;-0.7;-30.5;-24.3;167.57;9.61;15.46;0.4;34.928;19.520044;-96.9156;;;125.80645;93.2;80.0;3.0;95829;2014-11-08 13:55:34:218
0.4597;1.379;14.7098;1.7113;-0.8741;10.2764;-1.2517;2.2532;4.4334;18.0;-8.6;-29.4;231.56;20.42;-8.47;0.4;31.716;19.520044;-96.9156;;;125.80645;93.2;80.0;3.0;96329;2014-11-08 13:55:34:718
-1.8387;-3.9839;9.5001;-1.3487;-0.5052;12.8674;-0.4901;-3.4787;-3.3673;2.4;-28.9;-23.8;186.47;-3.66;1.92;0.4;36.808;19.520044;-96.9156;;;125.80645;93.2;80.0;3.0;96830;2014-11-08 13:55:35:219
1.2258;-0.3065;13.9437;0.1888;-1.3376;10.7216;1.037;1.0311;3.2221;10.9;-11.1;-31.5;218.09;7.11;-1.01;0.4;32.189;19.520044;-96.9156;;;125.80645;93.2;80.0;3.0;97331;2014-11-08 13:55:35:720
-0.9194;-3.2178;8.4275;-1.1209;-1.3755;11.896;0.2016;-1.8423;-3.4685;-1.5;-28.4;-23.0;174.08;6.57;5.38;0.4;35.048;19.520044;-96.9156;;;125.80645;93.2;80.0;3.0;97831;2014-11-08 13:55:36:220
1.0726;-0.3065;11.3388;0.4163;-1.9767;10.5471;0.6563;1.6702;0.7917;4.2;-16.4;-31.3;182.69;18.92;5.18;0.4;32.371;19.520044;-96.9156;;;125.80645;93.2;80.0;3.0;98331;2014-11-08 13:55:36:720
-1.992;-2.9113;9.6533;-1.1577;-2.1605;11.1272;-0.8343;-0.7508;-1.4739;-4.9;-19.8;-30.0;170.92;2.4;-3.05;0.4;33.825;19.520044;-96.9156;;;125.80645;93.2;80.0;3.0;98831;2014-11-08 13:55:37:220
0.1532;0.4597;11.0323;-1.0406;-1.7617;8.8615;1.1938;2.2214;2.1708;-9.6;-21.9;-28.0;153.74;11.17;6.7;0.4;32.073;19.520044;-96.9156;;;125.80645;93.2;80.0;3.0;99331;2014-11-08 13:55:37:720
0.4597;0.6129;9.8065;0.1894;-0.3354;10.9611;0.2703;0.9483;-1.1546;-3.8;-25.5;-25.7;172.16;1.75;-0.99;0.4;31.452;19.520044;-96.9156;;;125.80645;93.2;80.0;3.0;99831;2014-11-08 13:55:38:220
0.0;-0.4597;11.0323;0.5911;0.5606;10.2057;-0.5911;-1.0203;0.8266;-4.0;-26.0;-26.0;173.4;0.13;-2.16;0.4;30.879;19.520044;-96.9156;;;125.80645;93.2;80.0;3.0;100331;2014-11-08 13:55:38:720
-2.1452;0.7661;10.8791;-2.7235;-1.4005;11.4801;0.5784;2.1667;-0.6009;14.8;-20.8;-26.1;199.52;6.77;13.35;0.4;34.203;19.520016;-96.91536;;;225.80644;93.2;80.0;3.0;100831;2014-11-08 13:55:39:220
-1.5323;0.3065;11.1856;-1.163;1.4842;11.0587;-0.2737;-1.2971;0.5264;12.5;-23.8;-27.6;205.21;-8.43;7.68;0.4;31.222;19.520016;-96.91536;;;225.80644;93.2;80.0;3.0;101332;2014-11-08 13:55:39:721
-0.4597;0.7661;9.8065;-1.2479;0.16;10.2711;0.7882;1.0658;-0.771;12.2;-29.2;-24.6;195.95;0.47;8.11;0.4;30.918;19.520016;-96.91536;;;225.80644;93.2;80.0;3.0;101832;2014-11-08 13:55:40:221
-1.6855;1.379;9.5001;-0.7747;2.128;10.1923;-0.2978;0.0172;1.1465;8.9;-29.9;-22.2;199.53;-2.99;5.29;0.4;32.288;19.520016;-96.91536;;;225.80644;93.2;80.0;3.0;102333;2014-11-08 13:55:40:722
-1.2258;0.7661;10.8791;-1.151;1.2284;10.3462;-0.3812;-0.7687;-0.2332;10.4;-28.3;-20.4;189.94;-9.43;6.77;0.4;31.205;19.520016;-96.91536;;;225.80644;93.2;80.0;3.0;102834;2014-11-08 13:55:41:223
-1.8387;1.2258;12.2582;-1.7199;0.9754;10.2261;0.0344;1.0166;4.1772;14.8;-20.0;-19.9;217.61;-3.72;7.42;0.4;30.647;19.520016;-96.91536;;;225.80644;93.2;80.0;3.0;103335;2014-11-08 13:55:41:724
-2.1452;-1.379;10.4194;-1.7036;0.4776;11.1008;-0.1351;-1.8567;0.0848;12.4;-24.5;-15.7;202.1;-2.44;8.73;0.4;31.478;19.520016;-96.91536;;;225.80644;93.2;80.0;3.0;103835;2014-11-08 13:55:42:224
-1.5323;1.2258;11.7985;-1.3652;-0.9807;10.5507;-0.0139;2.2065;1.7074;20.3;-15.0;-16.5;226.92;5.27;7.37;0.4;30.582;19.520016;-96.91536;;;225.80644;93.2;80.0;3.0;104335;2014-11-08 13:55:42:724
-1.6855;-1.0726;9.6533;-1.9295;0.6186;11.7524;0.244;-1.6912;-2.0991;17.6;-25.5;-15.6;214.15;-4.85;7.19;0.4;32.92;19.520016;-96.91536;;;225.80644;93.2;80.0;3.0;104838;2014-11-08 13:55:43:227
-1.0726;1.379;10.8791;-1.451;-0.8052;10.8236;0.3784;2.1842;0.0556;24.5;-11.8;-21.7;234.57;6.81;9.45;0.4;31.136;19.520016;-96.91536;;;225.80644;93.2;80.0;3.0;105338;2014-11-08 13:55:43:727
-2.4516;-1.992;8.7339;-1.9904;-0.3299;11.3033;-0.4612;-1.662;-2.5694;18.4;-28.1;-20.7;211.54;-1.47;7.27;0.4;32.392;19.520016;-96.91536;;;225.80644;93.2;80.0;3.0;105838;2014-11-08 13:55:44:227
-2.4516;-0.3065;9.9598;-1.8636;-1.4068;9.8227;-0.588;1.1004;0.137;24.6;-14.4;-24.8;217.97;7.75;13.16;0.4;38.079;19.520016;-96.91536;;;225.80644;93.2;80.0;3.0;106338;2014-11-08 13:55:44:727
-2.2984;-3.2178;8.4275;-1.8948;-0.5151;11.0136;-0.4036;-2.7026;-2.5861;22.2;-24.4;-27.6;230.49;0.77;9.55;0.4;35.064;19.520016;-96.91536;;;225.80644;93.2;80.0;3.0;106838;2014-11-08 13:55:45:227
-0.7661;1.2258;10.8791;-1.1835;-1.8377;9.1529;0.4173;3.0636;1.7262;23.0;-19.8;-28.2;206.02;14.26;13.64;0.4;33.904;19.520016;-96.91536;;;225.80644;93.2;80.0;3.0;107338;2014-11-08 13:55:45:727
-1.6855;-2.1452;9.5001;-0.3528;-1.7626;10.7276;-1.3327;-0.3825;-1.2275;19.4;-18.4;-28.9;222.25;2.8;2.62;0.4;32.865;19.520016;-96.91536;;;225.80644;93.2;80.0;3.0;107838;2014-11-08 13:55:46:227
-1.2258;-2.2984;7.6614;-1.0447;-2.3283;11.5706;-0.1811;0.0299;-3.9093;8.4;-24.1;-29.1;193.46;8.65;2.49;0.4;35.054;19.520016;-96.91536;;;225.80644;93.2;80.0;3.0;108339;2014-11-08 13:55:46:728
4.1371;-2.2984;10.4194;-1.4128;0.3397;9.9097;5.5499;-2.6381;0.5097;16.3;-17.3;-25.7;206.19;9.4;11.39;0.4;33.859;19.520016;-96.91536;;;225.80644;93.2;80.0;3.0;108839;2014-11-08 13:55:47:228
-2.9113;6.1291;13.9437;0.9985;-2.4001;10.1439;-3.9098;8.5291;3.7997;17.8;-7.0;-26.0;249.6;7.8;-1.47;0.4;35.72;19.520016;-96.91536;;;225.80644;93.2;80.0;3.0;109339;2014-11-08 13:55:47:728
-0.7661;-5.2097;13.1775;-5.5326;-2.0786;11.9543;4.7665;-3.1311;1.2232;3.5;-25.7;-22.9;168.33;8.97;24.84;0.4;38.086;19.520016;-96.91536;;;225.80644;93.2;80.0;3.0;109839;2014-11-08 13:55:48:228
-1.2258;-0.3065;14.5566;-0.2672;0.8521;11.5339;-0.9587;-1.1585;3.0227;12.7;-11.4;-27.2;216.09;13.58;1.14;0.4;33.107;19.520016;-96.91536;;;225.80644;93.2;80.0;3.0;110339;2014-11-08 13:55:48:728
-0.1532;-1.992;10.7259;-1.5443;-2.9627;9.9368;1.3911;0.9708;0.7891;9.4;-16.5;-27.1;197.88;4.28;6.64;0.4;35.509;19.520016;-96.91536;;;225.80644;93.2;80.0;3.0;110839;2014-11-08 13:55:49:228
0.4597;-1.2258;10.5727;1.5354;0.1171;11.2097;-1.0757;-1.3429;-0.637;8.4;-11.8;-28.5;215.29;4.87;-4.36;0.4;32.525;19.520016;-96.91536;;;225.80644;93.2;80.0;3.0;111339;2014-11-08 13:55:49:728
1.0726;-3.0645;10.7259;0.2603;-1.9887;10.0644;0.8123;-1.0759;0.6615;8.8;-10.5;-28.6;212.36;11.17;-1.48;0.4;31.784;19.520016;-96.91536;;;225.80644;93.2;78.0;3.0;111839;2014-11-08 13:55:50:228
0.3065;-1.2258;12.1049;0.3533;-2.0674;10.4403;-0.0468;0.8416;1.6646;14.5;3.1;-28.4;261.47;11.19;-1.94;0.4;33.586;19.520016;-96.91536;;;225.80644;93.2;78.0;3.0;112341;2014-11-08 13:55:50:730
-0.6129;-5.2097;10.2662;-0.7723;-2.9756;10.3439;0.1594;-2.2341;-0.0777;12.0;-9.3;-30.1;209.58;16.01;4.27;0.4;33.357;19.520016;-96.91536;;;225.80644;93.2;78.0;3.0;112841;2014-11-08 13:55:51:230
-0.6129;-2.2984;12.4114;0.216;-2.784;10.2627;-0.829;0.4856;2.1487;14.8;4.5;-29.9;239.99;24.95;2.4;0.4;33.84;19.520016;-96.91536;;;225.80644;93.2;78.0;3.0;113341;2014-11-08 13:55:51:730
0.0;-3.9839;9.0404;-1.3974;-4.5649;9.0187;1.3974;0.581;0.0217;12.1;-4.0;-33.4;208.73;18.71;6.67;0.4;31.373;19.520016;-96.91536;;;225.80644;93.2;78.0;3.0;113841;2014-11-08 13:55:52:230
-0.9194;-3.5242;10.4194;-0.0716;-3.882;9.8842;-0.8477;0.3578;0.5352;7.4;-5.8;-36.5;199.76;21.44;0.42;0.4;34.704;19.520016;-96.91536;;;225.80644;93.2;78.0;3.0;114341;2014-11-08 13:55:52:730
-1.2258;-3.8307;9.5001;-1.366;-3.4615;9.388;0.1402;-0.3692;0.1121;2.8;-11.3;-37.3;174.15;20.05;8.28;0.4;32.198;19.520016;-96.91536;;;225.80644;93.2;78.0;3.0;114842;2014-11-08 13:55:53:231
-1.5323;-3.6774;11.0323;-0.5443;-3.6702;9.4943;-0.988;-0.0073;1.538;-7.4;-8.0;-38.5;156.4;21.1;3.28;0.4;31.595;19.520016;-96.91536;;;225.80644;93.2;78.0;3.0;115342;2014-11-08 13:55:53:731
-2.7581;-4.2904;13.484;-1.1524;-3.8147;8.5351;-1.6057;-0.4757;4.9489;-5.6;-12.0;-38.9;148.61;19.95;6.83;0.4;31.112;19.520016;-96.91536;;;225.80644;93.2;78.0;3.0;115842;2014-11-08 13:55:54:231
-2.2984;-4.75;12.2582;0.2225;-3.3188;11.0239;-1.7547;-0.3587;-1.9835;-12.0;-9.7;-38.9;151.77;16.75;-1.16;0.4;33.905;19.520016;-96.91536;;;225.80644;93.2;78.0;3.0;116343;2014-11-08 13:55:54:732
-2.9113;-5.6694;13.0243;-1.2463;-3.4614;8.7916;-0.4392;-0.8289;1.9343;-11.8;-10.0;-38.5;142.87;22.81;8.51;0.4;35.397;19.520016;-96.91536;;;225.80644;93.2;78.0;3.0;116843;2014-11-08 13:55:55:232
-0.7661;-3.0645;7.9678;-0.5348;-4.0731;9.9953;0.0752;1.315;0.4241;-12.8;-2.5;-38.1;136.63;22.14;3.06;0.4;31.281;19.520016;-96.91536;;;225.80644;93.2;78.0;3.0;117343;2014-11-08 13:55:55:732
0.1532;-3.2178;6.5888;-1.9654;-4.2335;10.9669;0.8928;2.3948;-2.0798;-17.0;-8.6;-37.2;131.64;16.27;5.98;0.4;35.639;19.520016;-96.91536;;;225.80644;93.2;78.0;3.0;117843;2014-11-08 13:55:56:232
1.5323;-3.2178;9.3468;-0.8983;-2.1987;9.6856;1.6644;-2.2449;0.7338;-20.7;-6.5;-33.6;118.19;12.74;5.3;0.4;32.843;19.520016;-96.91536;;;225.80644;93.2;78.0;3.0;118343;2014-11-08 13:55:56:732
0.9194;-1.8387;9.8065;0.2258;-2.9178;9.5222;0.0807;1.0791;0.1311;-22.3;-3.8;-30.1;119.0;17.62;-1.42;0.4;33.227;19.520016;-96.91536;;;225.80644;93.2;78.0;3.0;118843;2014-11-08 13:55:57:232
-0.1532;-0.9194;10.4194;-0.8846;-4.2329;10.9857;0.1185;3.3135;-0.5662;-23.1;-8.6;-25.9;124.25;21.01;4.6;0.4;35.254;19.520016;-96.91536;;;225.80644;93.2;78.0;3.0;119343;2014-11-08 13:55:57:732
-0.1532;-0.9194;10.4194;-0.6205;-2.4491;11.2305;0.4673;1.5297;-0.8111;-23.5;-9.5;-26.0;122.75;11.03;2.22;0.4;33.572;19.520016;-96.91536;;;225.80644;93.2;78.0;3.0;119844;2014-11-08 13:55:58:233
-4.5968;-4.9033;17.1614;-0.1174;-1.9257;9.0782;-1.7674;-3.6199;1.1015;-23.9;-9.5;-24.9;119.8;11.98;0.74;0.4;38.863;19.520016;-96.91536;;;225.80644;93.2;78.0;3.0;120344;2014-11-08 13:55:58:733
-1.0726;-1.0726;9.3468;-1.0936;-2.7063;9.7962;-1.3499;-2.52;6.2825;-24.7;-12.8;-24.5;123.37;15.35;6.37;0.4;36.828;19.520016;-96.91536;;;225.80644;93.2;78.0;3.0;120844;2014-11-08 13:55:59:233
-0.6129;-2.1452;8.5807;-0.5993;-2.7844;10.9207;0.3416;0.9649;-1.1676;-25.6;-5.6;-24.5;115.11;12.6;4.62;0.4;32.856;19.520016;-96.91536;;;225.80644;93.2;78.0;3.0;121344;2014-11-08 13:55:59:733
-0.4597;-3.371;8.7339;-0.7734;-2.9228;11.3202;-0.3423;-1.9356;-1.8285;-27.0;-8.4;-24.3;112.56;11.19;1.16;0.4;33.54;19.520016;-96.91536;;;225.80644;93.2;78.0;3.0;121844;2014-11-08 13:56:00:233
-1.992;-6.1291;11.492;-0.444;-0.9266;9.8586;-2.3816;-2.3628;5.073;-25.3;-9.9;-24.7;115.03;5.36;2.58;0.4;31.648;19.520016;-96.91536;;;225.80644;93.2;78.0;3.0;122344;2014-11-08 13:56:00:733
-0.7661;-1.5323;8.4275;-0.6791;-3.3434;10.5601;-0.5154;-0.3411;-0.7894;-24.6;-5.7;-25.8;113.92;13.73;4.56;0.4;36.177;19.520016;-96.91536;;;225.80644;93.2;78.0;3.0;122845;2014-11-08 13:56:01:234
-0.9194;-1.992;8.4275;-1.0877;-2.6268;10.7602;0.2915;1.2489;-3.5934;-23.9;-9.0;-26.5;115.0;12.34;4.05;0.4;39.971;19.520016;-96.91536;;;225.80644;93.2;78.0;3.0;123345;2014-11-08 13:56:01:734
-1.6855;-5.3629;11.1856;-0.8814;-0.6198;10.2963;1.0904;-0.4206;-0.7962;-23.7;-10.2;-26.5;116.72;9.53;7.24;0.4;33.644;19.520016;-96.91536;;;225.80644;93.2;78.0;3.0;123846;2014-11-08 13:56:02:235
-0.9194;-2.4516;8.2743;-0.7894;-2.0786;9.9611;1.7188;2.7145;-1.0308;-22.9;-2.4;-26.7;107.07;13.31;4.66;0.4;33.101;19.520016;-96.91536;;;225.80644;93.2;78.0;3.0;124346;2014-11-08 13:56:02:735
-0.3065;-0.9194;8.7339;-1.2724;-4.0828;11.1378;1.0325;1.9424;-2.9952;-22.2;-5.7;-27.6;119.74;20.01;6.52;0.4;36.931;19.520016;-96.91536;;;225.80644;93.2;78.0;3.0;124847;2014-11-08 13:56:03:236
0.1532;-2.2984;9.3468;-1.0996;-1.6138;10.8737;1.2528;-0.6846;-1.5269;-20.1;-5.6;-28.2;113.15;8.4;5.77;0.4;31.405;19.520016;-96.91536;;;225.80644;93.2;78.0;3.0;125347;2014-11-08 13:56:03:736
0.0;-0.7661;9.3468;0.5042;-2.1243;8.5696;-0.5042;1.3581;0.7773;-20.5;-3.2;-28.8;114.93;14.71;3.0;0.4;35.767;19.520016;-96.91536;;;225.80644;93.2;78.0;3.0;125848;2014-11-08 13:56:04:237
-1.2258;-1.379;9.9598;-2.2348;-3.82;11.6437;1.009;2.4409;-1.6839;-20.0;-8.0;-29.7;121.34;16.32;9.59;0.4;36.881;19.520016;-96.91536;;;225.80644;93.2;78.0;3.0;126348;2014-11-08 13:56:04:737
-2.6049;2.7581;7.8146;-1.2216;1.5958;9.9792;-1.3833;1.1623;-2.1646;-26.0;-8.1;-26.6;98.21;-9.02;6.98;0.4;34.637;19.520016;-96.91536;;;225.80644;93.2;78.0;3.0;126849;2014-11-08 13:56:05:238
-3.0645;0.3065;11.1856;-3.5651;-1.339;10.7871;0.5006;1.6454;0.3985;-14.3;23.8;-24.4;40.14;0.31;16.22;0.4;31.385;19.520016;-96.91536;;;225.80644;93.2;78.0;3.0;127353;2014-11-08 13:56:05:742
0.3065;-0.1532;11.3388;-1.0371;0.263;10.5146;1.3435;-0.4163;0.8242;-5.1;19.6;-26.1;24.13;-2.83;10.13;0.4;34.23;19.520016;-96.91536;;;225.80644;93.2;78.0;3.0;127853;2014-11-08 13:56:06:242
-0.4597;0.4597;12.1049;0.0659;1.6689;10.1505;-0.5256;-1.2093;1.9545;-10.7;21.2;-25.2;24.88;-4.02;-1.06;0.4;32.476;19.520016;-96.91536;;;225.80644;93.2;78.0;3.0;128354;2014-11-08 13:56:06:743
-0.9194;-0.7661;10.2662;-1.0369;0.265;10.4471;0.1175;-1.0311;-0.1809;-26.8;6.5;-25.2;75.55;-1.45;5.67;0.4;34.178;19.520016;-96.91536;;;225.80644;93.2;78.0;3.0;128855;2014-11-08 13:56:07:244
0.6129;1.992;13.484;-0.2954;1.6937;11.1783;0.9084;0.2983;2.3057;-29.3;-1.1;-24.3;85.2;-8.61;1.51;0.4;31.903;19.520016;-96.91536;;;225.80644;93.2;78.0;3.0;129355;2014-11-08 13:56:07:744
5.8226;-0.1532;7.3549;0.5236;1.1315;10.3976;5.2991;-1.2848;-3.0427;-36.0;6.4;-8.9;78.83;-8.24;-3.0;0.4;33.15;19.520016;-96.91536;;;225.80644;93.2;78.0;3.0;129855;2014-11-08 13:56:08:244
5.0565;2.4516;10.4194;6.2181;0.8223;8.508;-0.6691;1.2711;1.5621;-37.6;2.6;-6.3;80.66;-2.29;-39.93;0.0;31.639;19.520016;-96.91536;;;225.80644;93.2;78.0;3.0;130355;2014-11-08 13:56:08:744
7.0484;-0.4597;6.4355;6.239;0.4949;8.686;0.8094;-0.9545;-2.2504;-37.3;7.2;-0.6;72.18;-10.44;-28.76;0.0;35.115;19.520016;-96.91536;;;225.80644;93.2;78.0;3.0;130857;2014-11-08 13:56:09:246
7.5081;0.4597;6.4355;7.2914;-0.8075;6.2693;0.2168;1.2671;0.1663;-37.7;4.0;5.0;86.3;4.8;-49.31;0.4;31.991;19.520016;-96.91536;;;225.80644;93.2;78.0;3.0;131357;2014-11-08 13:56:09:746
7.9678;-0.1532;7.0484;7.7482;0.8483;6.9327;0.2196;-1.0015;0.1157;-38.1;-1.0;6.3;90.27;-2.05;-47.39;0.4;31.555;19.520016;-96.91536;;;225.80644;93.2;78.0;3.0;131858;2014-11-08 13:56:10:247
7.3549;-0.1532;6.2823;7.4665;0.3753;6.5074;-0.1116;-0.5285;-0.2251;-38.5;-4.6;5.4;97.99;-2.17;-48.93;0.4;31.789;19.520016;-96.91536;;;225.80644;93.2;78.0;3.0;132358;2014-11-08 13:56:10:747
7.6614;1.0726;8.2743;7.0402;0.0913;6.9986;0.6211;0.9813;1.2756;-39.3;-4.7;2.1;99.35;-0.53;-45.17;0.4;31.247;19.520016;-96.91536;;;225.80644;93.2;78.0;3.0;132858;2014-11-08 13:56:11:247
7.0484;-1.2258;7.3549;7.0633;-0.0328;7.8398;-0.0148;-1.193;-0.4849;-39.7;0.2;1.7;90.15;0.18;-42.02;0.4;31.283;19.520016;-96.91536;;;225.80644;93.2;78.0;3.0;133359;2014-11-08 13:56:11:748
7.9678;-0.9194;8.121;6.9419;-0.3577;7.8457;1.0259;-0.5617;0.2754;-40.3;-5.4;0.7;105.31;6.2;-44.94;0.4;31.688;19.520016;-96.91536;;;225.80644;93.2;78.0;3.0;133860;2014-11-08 13:56:12:249
7.9678;-0.3065;6.5888;7.3476;-1.1658;7.319;0.4134;-0.0894;-0.0195;-40.5;-14.0;1.5;119.72;6.41;-45.11;0.4;31.354;19.520016;-96.91536;;;225.80644;93.2;78.0;3.0;134360;2014-11-08 13:56:12:749
8.5807;0.0;5.8226;7.7797;0.0549;5.9381;0.801;-0.0549;-0.1154;-37.7;-18.6;0.6;129.25;2.64;-50.68;0.4;31.486;19.520016;-96.91536;;;225.80644;93.2;78.0;3.0;134860;2014-11-08 13:56:13:249
8.8872;-0.3065;6.5888;8.2645;-0.0765;6.1476;0.6227;-0.2299;0.4411;-36.6;-21.3;1.5;131.84;0.43;-53.36;0.4;31.684;19.520016;-96.91536;;;225.80644;93.2;78.0;3.0;135361;2014-11-08 13:56:13:750
7.6614;0.1532;5.0565;8.7959;-0.3801;5.2318;-1.1346;0.5333;-0.1753;-33.7;-25.1;0.3;146.31;2.13;-59.26;0.0;32.7;19.520016;-96.91536;;;225.80644;93.2;78.0;3.0;135861;2014-11-08 13:56:14:250
8.4275;0.6129;5.8226;8.8391;-0.0737;5.2256;-0.4116;0.6866;0.597;-31.5;-26.1;-4.4;153.74;-0.83;-58.83;0.0;32.546;19.520016;-96.91536;;;225.80644;93.2;78.0;3.0;136361;2014-11-08 13:56:14:750
8.121;-0.1532;4.9033;8.1942;0.5319;5.8447;-0.0732;-0.6851;-0.9414;-32.5;-24.8;-5.8;149.29;-3.79;-54.58;0.4;32.929;19.520016;-96.91536;;;225.80644;93.2;78.0;3.0;136862;2014-11-08 13:56:15:251
8.7339;0.6129;4.9033;8.4567;0.3147;4.7559;0.2772;1.2176;-0.1591;-29.0;-28.1;-6.7;163.31;-1.86;-60.65;0.0;30.778;19.520016;-96.91536;;;225.80644;93.2;78.0;3.0;137362;2014-11-08 13:56:15:751
8.8872;0.3065;5.2097;8.828;1.0431;4.9492;0.0591;-0.7366;0.2606;-28.9;-27.5;-7.1;161.98;-6.95;-61.06;0.0;30.835;19.520016;-96.91536;;;225.80644;93.2;78.0;3.0;137862;2014-11-08 13:56:16:251
8.7339;0.9194;4.9033;8.8388;0.4498;4.8;-0.1049;0.4696;0.1032;-28.4;-27.9;-7.2;164.9;-2.56;-61.5;0.0;30.94;19.520016;-96.91536;;;225.80644;93.2;78.0;3.0;138362;2014-11-08 13:56:16:751
8.8872;0.6129;4.9033;8.8028;0.9091;4.8448;0.0844;-0.2961;0.0585;-28.2;-28.3;-7.4;163.81;-5.17;-61.17;0.0;30.792;19.520016;-96.91536;;;225.80644;93.2;78.0;3.0;138874;2014-11-08 13:56:17:263
8.8872;0.6129;4.75;8.9612;0.5897;4.7656;-0.0741;0.0232;-0.0155;-27.7;-28.7;-7.8;167.44;-3.33;-62.0;0.0;30.998;19.520016;-96.91536;;;225.80644;93.2;78.0;3.0;139374;2014-11-08 13:56:17:763
8.8872;0.7661;4.75;8.8402;0.7718;4.7042;0.047;-0.0056;0.0458;-27.7;-28.7;-8.0;167.16;-4.41;-61.98;0.0;31.067;19.520016;-96.91536;;;225.80644;93.2;78.0;3.0;139874;2014-11-08 13:56:18:263
8.7339;0.7661;4.9033;8.6925;0.6193;4.8303;0.0415;0.1468;0.073;-27.7;-28.9;-8.2;166.73;-3.67;-61.36;0.0;30.77;19.520016;-96.91536;;;225.80644;93.2;78.0;3.0;140374;2014-11-08 13:56:18:763
8.7339;0.6129;4.9033;8.9605;0.6133;4.9148;-0.2266;-4.0E-4;-0.0115;-27.7;-28.9;-8.2;166.25;-3.8;-60.92;0.0;31.137;19.520016;-96.91536;;;225.80644;93.2;78.0;3.0;140875;2014-11-08 13:56:19:264
8.8872;0.6129;4.75;8.8079;0.5325;4.9038;0.0793;0.0804;-0.1537;-27.7;-28.7;-8.0;166.43;-3.02;-60.89;0.0;31.079;19.520016;-96.91536;;;225.80644;93.2;78.0;3.0;141375;2014-11-08 13:56:19:764
8.8872;0.6129;4.75;9.0262;0.8599;4.9926;-0.139;-0.2469;-0.2425;-27.7;-28.7;-8.0;166.13;-4.77;-61.05;0.0;30.786;19.520016;-96.91536;;;225.80644;93.2;78.0;3.0;141876;2014-11-08 13:56:20:265
8.8872;0.6129;4.75;8.8225;0.5227;4.6954;0.0647;0.0902;0.0546;-27.7;-28.7;-8.0;167.5;-2.99;-61.98;0.0;30.718;19.520016;-96.91536;;;225.80644;93.2;78.0;3.0;142377;2014-11-08 13:56:20:766
8.8872;0.6129;4.75;8.892;0.511;4.7957;-0.0049;0.1019;-0.0456;-27.9;-28.5;-7.8;166.8;-2.9;-61.72;0.0;30.871;19.520016;-96.91536;;;225.80644;93.2;78.0;3.0;142878;2014-11-08 13:56:21:267
8.8872;0.4597;4.5968;8.8281;0.6667;4.7711;0.0591;-0.207;-0.1743;-27.9;-28.5;-7.4;164.66;-3.8;-61.61;0.0;30.956;19.520016;-96.91536;;;225.80644;93.2;78.0;3.0;143378;2014-11-08 13:56:21:767
8.2743;0.9194;5.6694;8.6457;0.4217;5.0207;-0.3714;0.4977;0.6487;-27.9;-28.5;-7.4;166.44;-2.61;-61.29;0.0;31.423;19.520016;-96.91536;;;225.80644;93.2;78.0;3.0;143878;2014-11-08 13:56:22:267
7.6614;4.1371;6.1291;8.0372;1.4383;6.1932;-0.2541;2.3683;-0.1691;-29.6;-27.7;8.6;136.33;-8.07;-52.38;0.4;31.506;19.520016;-96.91536;;;225.80644;93.2;78.0;3.0;144379;2014-11-08 13:56:22:768
7.5081;4.1371;5.6694;7.3695;4.6152;5.2428;0.1387;-0.4781;0.4266;-31.4;-22.0;13.1;119.93;-15.24;-51.26;0.4;32.386;19.51996;-96.915504;;;135.48387;93.2;78.0;3.0;144879;2014-11-08 13:56:23:268
6.5888;3.6774;7.2017;3.9433;14.0438;-1.4148;2.6455;-10.3663;8.6165;-37.9;4.5;-9.9;325.58;-73.39;-109.74;0.4;32.25;19.51996;-96.915504;;;135.48387;93.2;78.0;3.0;145379;2014-11-08 13:56:23:768
6.5888;4.9033;5.9759;5.8546;6.1974;6.3333;0.7342;-1.2941;-0.3574;-36.9;6.8;-15.6;40.78;-21.82;-39.47;0.4;31.651;19.51996;-96.915504;;;135.48387;93.2;78.0;3.0;145879;2014-11-08 13:56:24:268
5.9759;4.5968;7.9678;6.4725;4.6941;6.3902;-0.4966;-0.0973;1.5776;-36.1;4.8;-16.6;31.34;-27.3;-45.37;0.4;31.306;19.51996;-96.915504;;;135.48387;93.2;78.0;3.0;146380;2014-11-08 13:56:24:769
6.1291;4.5968;8.121;2.7079;3.5069;14.6243;3.4212;1.0899;-6.5033;-30.5;10.7;-24.7;54.79;-13.27;-10.49;0.4;31.724;19.51996;-96.915504;;;135.48387;93.2;78.0;3.0;146896;2014-11-08 13:56:25:285
5.5162;4.9033;7.9678;5.5682;6.9801;8.6027;-0.052;-2.0768;-0.6349;-29.6;9.6;-24.7;8.17;-24.48;-44.88;0.4;31.834;19.51996;-96.915504;;;135.48387;93.2;78.0;3.0;147397;2014-11-08 13:56:25:786
6.1291;4.2904;7.2017;8.2915;5.2567;4.6814;-1.1965;1.7202;0.5457;-18.0;7.4;-32.9;337.7;-6.97;-35.8;0.4;31.769;19.51996;-96.915504;;;135.48387;93.2;78.0;3.0;147897;2014-11-08 13:56:26:286
7.0484;3.6774;6.2823;6.0564;4.1378;6.8382;0.992;-0.4604;-0.5559;-12.2;-1.3;-35.7;301.41;-36.64;-62.77;0.4;33.213;19.51996;-96.915504;;;135.48387;93.2;78.0;3.0;148397;2014-11-08 13:56:26:786
8.4275;2.4516;5.9759;8.541;2.1731;5.6738;-0.1135;0.2786;0.3021;-11.9;-0.9;-36.4;298.95;-21.21;-49.49;0.4;32.16;19.51996;-96.915504;;;135.48387;93.2;78.0;3.0;148898;2014-11-08 13:56:27:287
8.121;2.9113;5.6694;7.2022;3.3295;6.8687;0.9188;-0.4182;-1.1993;-13.8;2.6;-35.4;304.3;-16.11;-49.9;0.4;32.464;19.51996;-96.915504;;;135.48387;93.2;78.0;3.0;149399;2014-11-08 13:56:27:788
6.8952;1.992;6.2823;8.0442;2.8132;6.0356;-1.149;-0.8212;0.2467;-19.3;5.3;-33.1;313.53;-15.63;-53.12;0.4;34.51;19.51996;-96.915504;;;135.48387;93.2;78.0;3.0;149899;2014-11-08 13:56:28:288
5.9759;3.5242;5.3629;7.4829;3.5912;5.6193;-1.5071;-0.067;-0.2564;-15.7;2.8;-33.9;309.9;-20.99;-53.1;0.4;35.889;19.51996;-96.915504;;;135.48387;93.2;78.0;3.0;150400;2014-11-08 13:56:28:789
8.2743;1.992;7.3549;7.3023;2.772;6.0676;0.972;-0.78;1.2873;-15.1;2.6;-33.6;310.44;-21.9;-50.52;0.4;38.192;19.51996;-96.915504;;;135.48387;93.2;78.0;3.0;150900;2014-11-08 13:56:29:289
7.9678;3.2178;6.8952;7.7954;2.4289;6.1321;0.1724;0.7888;0.7631;-14.5;1.9;-33.7;297.89;-13.76;-51.81;0.4;34.696;19.51996;-96.915504;;;135.48387;93.2;78.0;3.0;151401;2014-11-08 13:56:29:790
7.9678;2.2984;6.742;7.2178;1.8251;7.8476;0.75;0.4733;-1.1056;-14.1;1.4;-34.1;298.17;-9.71;-42.61;0.4;33.322;19.51996;-96.915504;;;135.48387;93.2;78.0;3.0;151901;2014-11-08 13:56:30:290
7.9678;1.379;7.5081;7.6784;1.4711;6.4247;0.2894;-0.092;1.0834;-14.1;8.3;-33.9;304.49;-10.96;-48.64;0.4;33.724;19.519;-96.9129;;;7293.5483;93.2;78.0;3.0;152409;2014-11-08 13:56:30:798
7.8146;1.5323;6.2823;7.8481;1.428;6.8392;-0.0335;0.1042;-0.5569;-24.5;16.9;-23.6;353.81;-7.81;-48.93;0.4;33.181;19.519;-96.9129;;;7293.5483;93.2;78.0;3.0;152909;2014-11-08 13:56:31:298
8.5807;2.6049;6.2823;7.663;2.565;6.301;-0.0832;-0.4328;-0.1236;-34.5;14.7;-10.8;29.83;-14.5;-50.57;0.4;32.883;19.519;-96.9129;;;7293.5483;93.2;78.0;3.0;153409;2014-11-08 13:56:31:798
7.2017;3.2178;4.4436;7.2961;2.8244;5.7871;-0.0944;0.3934;-1.3435;-38.9;10.5;-1.1;41.13;-16.4;-52.0;0.4;33.046;19.519;-96.9129;;;7293.5483;93.2;78.0;3.0;153909;2014-11-08 13:56:32:298
2.7581;2.4516;5.3629;9.7581;3.2666;4.8357;-7.0;-0.815;0.5272;-36.7;3.3;15.5;71.39;-16.7;-63.64;0.4;33.567;19.519;-96.9129;;;7293.5483;93.2;78.0;3.0;154409;2014-11-08 13:56:32:798
9.3468;1.379;4.5968;7.4926;1.6597;4.0171;1.8543;-0.2807;0.5797;-37.7;6.6;6.8;63.65;-16.36;-53.05;0.4;33.669;19.519;-96.9129;;;7293.5483;93.2;78.0;3.0;154909;2014-11-08 13:56:33:298
8.4275;3.5242;7.0484;8.5174;2.2435;5.0503;-0.0899;1.2808;1.9981;-39.4;5.1;5.1;66.41;-8.66;-62.47;0.4;32.095;19.519;-96.9129;;;7293.5483;93.2;78.0;3.0;155409;2014-11-08 13:56:33:798
9.1936;1.5323;7.2017;7.7105;2.8292;6.0272;1.4831;-1.2969;1.1745;-39.6;10.2;0.4;51.09;-18.69;-53.76;0.4;32.73;19.519;-96.9129;;;7293.5483;93.2;78.0;3.0;155909;2014-11-08 13:56:34:298
8.121;2.6049;6.5888;7.7807;1.2138;6.7118;0.3404;1.3911;-0.123;-39.6;8.7;-1.4;63.65;-6.74;-49.22;0.4;33.258;19.519;-96.9129;;;7293.5483;93.2;78.0;3.0;156411;2014-11-08 13:56:34:800
6.742;2.6049;5.8226;7.7545;3.1074;6.5927;-1.0125;-0.5026;-0.7701;-39.2;8.0;-1.5;56.01;-16.98;-49.63;0.4;32.272;19.519;-96.9129;;;7293.5483;93.2;78.0;3.0;156911;2014-11-08 13:56:35:300
7.3549;3.8307;5.6694;7.8511;2.9291;5.9576;-0.4962;0.9016;-0.2882;-39.4;3.0;-0.1;63.55;-16.55;-52.81;0.4;32.766;19.519;-96.9129;;;7293.5483;93.2;78.0;3.0;157411;2014-11-08 13:56:35:800
7.9678;2.9113;5.5162;7.9414;3.7409;6.0339;0.0264;-0.8296;-0.5177;-39.8;6.4;0.7;58.74;-19.3;-51.61;0.4;32.827;19.519;-96.9129;;;7293.5483;93.2;78.0;3.0;157912;2014-11-08 13:56:36:301
8.121;1.6855;3.8307;8.7328;1.4843;4.6418;-0.6118;0.2012;-0.8111;-38.8;7.1;9.8;63.14;-13.71;-59.1;0.4;34.351;19.519;-96.9129;;;7293.5483;93.2;78.0;3.0;158412;2014-11-08 13:56:36:801
8.2743;2.2984;1.6855;9.7558;2.4882;3.459;-1.4816;-0.1898;-1.7736;-38.3;7.7;12.4;66.99;-8.18;-62.67;0.4;37.159;19.519;-96.9129;;;7293.5483;93.2;78.0;3.0;158912;2014-11-08 13:56:37:301
8.8872;1.8387;5.2097;8.539;2.2156;2.7337;0.3482;-0.3768;2.476;-38.2;1.4;11.1;47.4;-17.53;-79.41;0.4;36.107;19.519;-96.9129;;;7293.5483;93.2;78.0;3.0;159412;2014-11-08 13:56:37:801
8.8872;2.9113;7.5081;8.0202;2.5689;5.5186;0.867;0.3424;1.9895;-39.7;-4.3;8.2;83.99;-13.6;-57.12;0.4;35.154;19.519;-96.9129;;;7293.5483;93.2;78.0;3.0;159912;2014-11-08 13:56:38:301
7.9678;3.5242;7.9678;6.8329;2.6036;7.0001;1.1349;0.9206;0.9677;-41.2;-7.1;-0.4;85.25;-13.96;-52.84;0.4;32.973;19.519;-96.9129;;;7293.5483;93.2;78.0;3.0;160412;2014-11-08 13:56:38:801
6.742;2.6049;7.5081;6.3311;2.5886;7.9943;0.4109;0.0162;-0.4861;-43.5;-9.0;-3.6;91.19;-15.43;-41.97;0.4;32.155;19.519;-96.9129;;;7293.5483;93.2;78.0;3.0;160912;2014-11-08 13:56:39:301
5.6694;2.7581;8.4275;5.9491;3.1388;8.5189;-0.2797;-0.3807;-0.0914;-44.6;-9.0;-2.3;91.11;-16.81;-34.93;0.4;31.689;19.519;-96.9129;;;7293.5483;93.2;78.0;3.0;161412;2014-11-08 13:56:39:801
5.3629;1.379;7.8146;5.7655;2.7891;8.2491;-0.4025;-1.4101;-0.4345;-42.2;-14.7;-1.6;93.34;-16.76;-32.28;0.4;32.007;19.519;-96.9129;;;7293.5483;93.2;78.0;3.0;161913;2014-11-08 13:56:40:302
6.8952;1.379;8.7339;6.8229;1.3277;7.5654;0.0723;0.0513;1.1686;-37.4;-19.3;-2.1;120.11;-7.64;-41.12;0.4;33.052;19.519;-96.9129;;;7293.5483;93.2;78.0;3.0;162414;2014-11-08 13:56:40:803
5.5162;0.9194;8.8872;5.4677;0.8492;8.882;0.0485;0.0702;0.0052;-38.0;-15.5;-8.1;114.27;-5.86;-34.65;0.4;31.6;19.519;-96.9129;;;7293.5483;93.2;78.0;3.0;162914;2014-11-08 13:56:41:303
5.2097;0.4597;7.9678;5.4225;0.654;9.2233;-0.2128;-0.1943;-1.2555;-37.4;-14.7;-8.7;116.04;-3.5;-30.45;0.4;34.476;19.519;-96.9129;;;7293.5483;93.2;78.0;3.0;163414;2014-11-08 13:56:41:803
2.9113;0.0;10.2662;5.1324;0.9999;8.9533;-2.2211;-0.9999;1.3129;-38.2;-7.2;-9.0;109.52;-4.22;-30.58;0.4;33.104;19.519;-96.9129;;;7293.5483;93.2;78.0;3.0;163915;2014-11-08 13:56:42:304
3.0645;-0.4597;9.6533;4.3424;-0.0134;9.6958;-1.2779;-0.4463;-0.0425;-39.1;-7.2;-9.7;102.69;0.98;-20.95;0.4;34.264;19.519;-96.9129;;;7293.5483;93.2;78.0;3.0;164416;2014-11-08 13:56:42:805
5.3629;0.3065;9.0404;4.6893;0.2023;8.9508;1.2865;-0.0491;-0.2169;-40.0;-3.0;-8.8;95.59;-1.92;-25.65;0.4;34.938;19.519;-96.9129;;;7293.5483;93.2;78.0;3.0;164916;2014-11-08 13:56:43:305
5.3629;0.3065;8.7339;4.9432;0.6393;9.2699;0.7262;-0.1796;0.6898;-40.6;0.1;-7.4;87.58;-2.92;-29.9;0.4;35.094;19.519;-96.9129;;;7293.5483;93.2;78.0;3.0;165417;2014-11-08 13:56:43:806
5.2097;0.3065;8.2743;5.5051;0.6381;9.0311;0.0111;-1.0978;-0.7568;-41.4;-4.9;-6.0;92.74;-3.21;-29.98;0.4;34.364;19.519;-96.9129;;;7293.5483;93.2;78.0;3.0;165917;2014-11-08 13:56:44:306
5.9759;0.4597;8.7339;5.8151;0.55;8.52;0.7737;-0.2435;0.9801;-41.4;-8.1;-4.1;101.76;-3.05;-34.31;0.4;33.496;19.519;-96.9129;;;7293.5483;93.2;78.0;3.0;166417;2014-11-08 13:56:44:806
6.8952;0.7661;8.7339;5.6774;0.766;8.4934;0.9114;0.3066;-0.0659;-41.1;-10.6;-3.5;104.94;-3.21;-34.66;0.4;33.831;19.519;-96.9129;;;7293.5483;93.2;78.0;3.0;166917;2014-11-08 13:56:45:306
7.2017;-0.4597;7.8146;7.1902;0.3387;8.2993;-0.6014;-0.4919;-1.404;-38.4;-20.5;-2.0;115.45;-5.25;-37.3;0.4;32.339;19.519;-96.9129;;;7293.5483;93.2;78.0;3.0;167418;2014-11-08 13:56:45:807
8.4275;-0.7661;6.2823;7.1303;-0.1225;6.4855;2.0634;-0.4904;0.5629;-33.7;-23.4;-9.1;145.27;0.73;-47.71;0.4;33.875;19.519;-96.9129;;;7293.5483;93.2;78.0;3.0;167918;2014-11-08 13:56:46:307
7.3549;-1.5323;7.0484;7.6961;-1.1418;6.5694;0.425;-0.084;0.7855;-26.2;-23.2;-23.1;181.31;6.44;-49.52;0.0;34.102;19.519;-96.9129;;;7293.5483;93.2;78.0;3.0;168418;2014-11-08 13:56:46:807
7.5081;-1.5323;7.6614;7.3035;-1.5429;6.8894;0.0514;1.0832;-0.9136;-22.1;-23.6;-24.7;185.51;8.33;-46.09;0.0;33.311;19.519;-96.9129;;;7293.5483;93.2;78.0;3.0;168918;2014-11-08 13:56:47:307
7.5081;-0.3065;7.0484;7.3727;-0.5422;6.9905;0.4419;0.2358;0.058;-20.3;-23.8;-25.0;185.97;4.55;-46.16;0.0;36.104;19.519;-96.9129;;;7293.5483;93.2;78.0;3.0;169419;2014-11-08 13:56:47:808
7.3549;-0.6129;7.3549;7.5073;-0.41;7.0931;-0.1525;-0.3561;0.4151;-20.2;-24.2;-25.4;191.1;1.65;-47.44;0.0;33.108;19.519;-96.9129;;;7293.5483;93.2;78.0;3.0;169920;2014-11-08 13:56:48:309
7.0484;-0.9194;7.5081;7.2233;-0.6973;7.4523;-0.0217;-0.3753;-0.0974;-19.2;-23.8;-26.3;189.69;3.84;-44.11;0.4;33.07;19.519;-96.9129;;;7293.5483;93.2;78.0;3.0;170423;2014-11-08 13:56:48:812
6.742;-1.0726;7.3549;6.8686;-1.0234;7.6831;-0.1266;-0.0492;-0.3282;-18.6;-23.4;-27.1;190.44;4.91;-43.39;0.4;31.903;19.519;-96.9129;;;7293.5483;93.2;78.0;3.0;170923;2014-11-08 13:56:49:312
6.5888;-1.379;7.9678;6.6727;-1.1911;7.915;-0.0839;-0.188;0.0528;-18.2;-22.6;-27.8;190.18;6.29;-40.94;0.4;32.404;19.519;-96.9129;;;7293.5483;93.2;78.0;3.0;171424;2014-11-08 13:56:49:813
6.5888;-1.2258;7.8146;6.5856;-1.2182;7.8771;0.0031;-0.0076;-0.0625;-18.0;-22.2;-28.2;189.03;7.05;-39.84;0.4;32.246;19.519;-96.9129;;;7293.5483;93.2;77.0;3.0;171925;2014-11-08 13:56:50:314
6.5888;-1.2258;7.8146;6.5347;-1.2578;7.8295;0.0541;0.0319;-0.0149;-18.0;-22.2;-28.4;189.09;7.0;-39.88;0.4;31.596;19.519;-96.9129;;;7293.5483;93.2;76.0;3.0;172426;2014-11-08 13:56:50:815
6.5888;-1.2258;7.8146;6.5764;-1.2968;7.8991;0.0124;0.071;-0.0846;-18.0;-22.0;-28.6;190.5;7.15;-39.95;0.4;31.928;19.519;-96.9129;;;7293.5483;93.2;76.0;3.0;172926;2014-11-08 13:56:51:315
6.5888;-1.2258;7.8146;6.5785;-1.2192;7.8625;0.0103;-0.0066;-0.048;-18.2;-22.0;-28.6;190.49;7.01;-39.93;0.4;35.481;19.519;-96.9129;;;7293.5483;93.2;76.0;3.0;173426;2014-11-08 13:56:51:815
6.742;-1.2258;7.8146;6.601;-1.2327;7.8226;0.141;0.0069;-0.008;-18.4;-22.0;-28.4;189.38;6.91;-40.09;0.4;35.396;19.519;-96.9129;;;7293.5483;93.2;76.0;3.0;173926;2014-11-08 13:56:52:315
6.742;-1.2258;7.8146;6.7387;-1.2704;7.8368;0.0033;0.0446;-0.0222;-18.4;-22.2;-28.2;190.22;6.79;-40.75;0.4;32.121;19.519;-96.9129;;;7293.5483;93.2;76.0;3.0;174426;2014-11-08 13:56:52:815
6.742;-1.0726;7.8146;6.7172;-1.207;7.8369;0.0248;0.1344;-0.0224;-18.6;-22.2;-28.2;188.38;6.67;-40.6;0.4;31.886;19.519;-96.9129;;;7293.5483;93.2;76.0;3.0;174926;2014-11-08 13:56:53:315
6.5888;-1.2258;8.121;6.6524;-1.1651;7.7714;-0.0636;-0.0607;0.3497;-18.8;-22.4;-28.0;188.34;6.49;-40.55;0.4;31.077;19.519;-96.9129;;;7293.5483;93.2;76.0;3.0;175426;2014-11-08 13:56:53:815
6.1291;0.0;8.121;6.6384;-1.1161;7.9429;-0.5093;1.1161;0.1781;-19.0;-22.6;-27.6;187.44;6.56;-40.08;0.4;32.595;19.519;-96.9129;;;7293.5483;93.2;76.0;3.0;175926;2014-11-08 13:56:54:315
5.8226;-2.1452;7.6614;6.1322;-0.901;8.0073;-0.4628;-1.8571;1.3395;-34.1;-21.5;-14.8;143.11;5.1;-37.45;0.0;31.562;19.519;-96.9129;;;7293.5483;93.2;76.0;3.0;176426;2014-11-08 13:56:54:815
5.9759;-1.5323;8.2743;5.9318;-0.3924;8.5739;0.0441;-1.1399;-0.2996;-38.0;-15.1;-11.6;126.53;5.48;-35.02;0.0;32.068;19.519;-96.9129;;;7293.5483;93.2;76.0;3.0;176926;2014-11-08 13:56:55:315
5.2097;-2.2984;8.121;5.5305;-2.6884;8.3489;-0.2489;-0.1866;-0.3333;-40.5;-6.9;-11.4;113.26;10.68;-33.61;0.0;32.036;19.519;-96.9129;;;7293.5483;93.2;76.0;3.0;177426;2014-11-08 13:56:55:815
4.9033;1.379;8.7339;5.6624;-0.1037;8.9632;-0.7591;1.4828;-0.2293;-40.3;-7.5;-9.2;112.4;9.07;-33.92;0.0;35.209;19.519;-96.9129;;;7293.5483;93.2;76.0;3.0;177926;2014-11-08 13:56:56:315
4.4436;0.0;10.5727;5.2759;1.5701;8.7367;-0.8324;-1.5701;1.836;-41.2;-2.6;-9.5;87.31;-8.75;-31.13;0.0;34.178;19.519;-96.9129;;;7293.5483;93.2;76.0;3.0;178426;2014-11-08 13:56:56:815
5.2097;-0.9194;9.0404;3.9739;0.9416;9.4546;1.2358;-0.0223;2.3439;-41.0;2.2;-11.0;83.99;-3.4;-22.7;0.0;32.982;19.519;-96.9129;;;7293.5483;93.2;76.0;3.0;178926;2014-11-08 13:56:57:315
6.1291;0.4597;8.8872;4.5541;0.2693;9.1886;1.5749;0.1904;-0.3014;-41.0;2.2;-8.5;78.05;-4.18;-25.44;0.4;32.66;19.519;-96.9129;;;7293.5483;93.2;76.0;3.0;179427;2014-11-08 13:56:57:816
6.8952;1.8387;8.7339;5.4877;-0.0456;8.5428;1.4075;1.8843;0.1911;-42.2;-8.7;-5.6;104.93;1.22;-32.5;0.4;33.518;19.519;-96.9129;;;7293.5483;93.2;76.0;3.0;179927;2014-11-08 13:56:58:316
6.5888;0.3065;8.121;6.195;0.1025;8.3544;0.3938;0.204;-0.2334;-42.6;-12.5;-2.1;106.68;-3.95;-35.52;0.4;33.269;19.519;-96.9129;;;7293.5483;93.2;76.0;3.0;180427;2014-11-08 13:56:58:816
7.0484;1.379;7.3549;6.7804;0.3031;8.0131;0.268;1.076;-0.6582;-38.1;-22.2;-2.5;127.46;-1.65;-40.24;0.4;32.383;19.519;-96.9129;;;7293.5483;93.2;76.0;3.0;180928;2014-11-08 13:56:59:317
7.2017;1.379;6.4355;7.4477;1.8887;7.0244;-0.246;-0.5097;-0.5889;-36.8;-21.4;1.2;120.95;-10.65;-45.98;0.4;32.664;19.519;-96.9129;;;7293.5483;93.2;76.0;3.0;181428;2014-11-08 13:56:59:817
7.6614;1.6855;5.6694;8.1914;1.3955;6.4276;-1.4494;0.1368;-0.1453;-33.5;-26.6;0.3;138.85;-7.63;-51.88;0.4;33.417;19.519;-96.9129;;;7293.5483;93.2;76.0;3.0;181928;2014-11-08 13:57:00:317
7.5081;1.0726;6.1291;7.9536;1.9377;5.6506;0.0142;-0.099;0.172;-31.8;-27.6;0.7;139.53;-9.73;-53.28;0.4;33.554;19.519;-96.9129;;;7293.5483;93.2;76.0;3.0;182428;2014-11-08 13:57:00:817
9.0404;0.1532;6.4355;7.4713;0.7583;6.5041;1.5691;-0.6051;-0.0685;-31.9;-27.4;-5.8;143.65;-6.82;-50.31;0.4;34.108;19.519;-96.9129;;;7293.5483;93.2;76.0;3.0;182929;2014-11-08 13:57:01:318
7.8146;0.0;5.8226;7.8205;0.4997;6.8032;-0.0059;-0.4997;-0.9806;-31.3;-27.4;-8.2;154.08;-2.95;-51.3;0.4;33.555;19.519;-96.9129;;;7293.5483;93.2;76.0;3.0;183430;2014-11-08 13:57:01:819
7.5081;0.7661;7.8146;8.177;0.3645;6.2042;-0.6688;0.4016;1.6103;-33.1;-25.4;-6.7;148.98;-2.03;-52.81;0.4;32.839;19.519;-96.9129;;;7293.5483;93.2;76.0;3.0;183931;2014-11-08 13:57:02:320
7.2017;0.9194;7.6614;7.3257;0.1153;7.1332;0.6421;2.3363;-0.0847;-30.6;-27.4;-7.9;149.22;-0.65;-45.76;0.4;34.059;19.519;-96.9129;;;7293.5483;93.2;76.0;3.0;184431;2014-11-08 13:57:02:820
7.2017;0.0;7.6614;6.9041;-0.1703;8.0874;0.2975;0.1703;-0.4261;-24.1;-28.3;-17.7;162.97;-4.19;-43.4;0.4;33.613;19.519;-96.9129;;;7293.5483;93.2;76.0;3.0;184931;2014-11-08 13:57:03:320
8.4275;0.7661;4.9033;8.645;0.7495;5.4445;-0.2175;0.0166;-0.5413;-25.9;-28.5;-18.7;179.18;-1.54;-53.15;0.4;33.505;19.519;-96.9129;;;7293.5483;93.2;76.0;3.0;185432;2014-11-08 13:57:03:821
9.0404;0.6129;4.9033;8.375;0.701;4.7855;0.6653;-0.0881;0.1177;-24.4;-28.1;-18.3;188.22;-4.16;-60.26;0.0;34.215;19.519;-96.9129;;;7293.5483;93.2;76.0;3.0;185932;2014-11-08 13:57:04:321
8.2743;1.2258;5.5162;8.5552;0.5364;5.5013;-0.2809;0.6894;0.0149;-24.0;-27.0;-21.0;192.7;-2.76;-59.17;0.0;34.78;19.519;-96.9129;;;7293.5483;93.2;76.0;3.0;186433;2014-11-08 13:57:04:822
8.5807;1.0726;5.3629;8.562;1.0576;5.5505;0.0187;0.015;-0.1875;-20.5;-26.7;-22.7;198.7;-4.96;-56.7;0.0;33.422;19.519;-96.9129;;;7293.5483;93.2;76.0;3.0;186934;2014-11-08 13:57:05:323
8.4275;1.2258;5.5162;8.4776;0.9778;5.3881;-0.0501;0.2481;0.1281;-20.4;-26.5;-23.5;200.64;-5.56;-57.56;0.0;32.859;19.519;-96.9129;;;7293.5483;93.2;76.0;3.0;187435;2014-11-08 13:57:05:824
8.5807;0.9194;5.5162;8.4536;0.9752;5.4757;0.1271;-0.0558;0.0405;-20.2;-26.3;-23.7;202.03;-5.77;-57.04;0.0;33.459;19.519;-96.9129;;;7293.5483;93.2;76.0;3.0;187936;2014-11-08 13:57:06:325
8.5807;0.7661;5.3629;8.5434;0.8723;5.4147;0.0373;-0.1062;-0.0518;-20.8;-26.3;-23.5;199.34;-4.93;-57.63;0.0;33.275;19.519;-96.9129;;;7293.5483;93.2;76.0;3.0;188436;2014-11-08 13:57:06:825
8.5807;0.7661;5.3629;8.5496;0.7435;5.4108;0.0311;0.0226;-0.0479;-21.0;-26.1;-23.5;199.2;-4.42;-57.7;0.0;33.158;19.519;-96.9129;;;7293.5483;93.2;76.0;3.0;188936;2014-11-08 13:57:07:325
8.5807;0.6129;5.3629;8.6077;0.7975;5.3638;-0.027;-0.1846;-8.0E-4;-21.7;-25.9;-23.2;199.37;-4.36;-57.88;0.0;32.848;19.519;-96.9129;;;7293.5483;93.2;76.0;3.0;189436;2014-11-08 13:57:07:825
8.5807;0.6129;5.3629;8.5849;0.6791;5.3318;-0.0042;-0.0662;0.0312;-21.9;-25.7;-23.2;198.43;-4.05;-58.13;0.0;33.298;19.519;-96.9129;;;7293.5483;93.2;76.0;3.0;189936;2014-11-08 13:57:08:325
8.5807;0.6129;5.2097;8.5923;0.6134;5.3068;-0.0321;-0.0264;0.0291;-21.9;-25.5;-23.2;199.11;-3.61;-58.23;0.0;33.0;19.519552;-96.91521;;;158.06451;93.2;76.0;3.0;190436;2014-11-08 13:57:08:825
8.7339;0.6129;5.2097;8.6453;0.6425;5.2261;0.0886;-0.0296;-0.0164;-21.9;-25.5;-23.4;199.55;-3.59;-58.61;0.0;33.333;19.519552;-96.91521;;;158.06451;93.2;76.0;3.0;190937;2014-11-08 13:57:09:326
8.5807;0.7661;5.2097;8.6922;0.7551;5.166;-0.1115;0.011;0.0437;-21.9;-25.5;-23.2;200.59;-4.12;-59.29;0.0;33.286;19.519552;-96.91521;;;158.06451;93.2;76.0;3.0;191437;2014-11-08 13:57:09:826
8.5807;0.7661;5.2097;8.7111;0.664;5.2183;-0.1228;0.1047;0.0149;-21.9;-25.7;-23.0;200.33;-3.99;-59.12;0.0;33.719;19.519552;-96.91521;;;158.06451;93.2;76.0;3.0;191937;2014-11-08 13:57:10:326
8.7339;0.7661;5.2097;8.6037;0.7521;5.2338;0.1443;-7.0E-4;0.1405;-21.9;-25.9;-23.0;199.17;-4.27;-58.69;0.0;33.376;19.519552;-96.91521;;;158.06451;93.2;76.0;3.0;192437;2014-11-08 13:57:10:826
8.7339;5.2097;3.2178;7.9414;0.5187;5.5471;0.7926;4.691;-2.3294;-21.5;-33.0;-14.3;180.64;-3.21;-57.11;0.4;33.948;19.519552;-96.91521;;;158.06451;93.2;76.0;3.0;192939;2014-11-08 13:57:11:328
7.0484;4.1371;6.1291;7.3089;5.8718;6.3107;-0.2604;-1.7347;-0.1817;-11.7;-30.6;-22.9;214.42;-31.3;-49.19;0.4;34.214;19.519552;-96.91521;;;158.06451;93.2;76.0;3.0;193439;2014-11-08 13:57:11:828
6.8952;2.9113;8.4275;7.7108;1.0771;6.1363;-0.8156;1.8342;2.2912;-10.6;-17.6;-34.0;243.78;-16.26;-46.9;0.4;32.702;19.519552;-96.91521;;;158.06451;93.2;76.0;3.0;193939;2014-11-08 13:57:12:328
7.5081;2.4516;7.9678;7.1632;2.4001;7.2603;0.3449;0.0516;0.7075;-11.1;13.5;-33.3;323.55;-13.24;-44.61;0.4;34.426;19.519552;-96.91521;;;158.06451;93.2;76.0;3.0;194440;2014-11-08 13:57:12:829
5.2097;0.3065;8.5807;7.0534;2.2206;8.1195;-1.9969;-2.6803;0.7677;-12.0;22.1;-29.1;340.13;-11.67;-40.98;0.4;32.499;19.519552;-96.91521;;;158.06451;93.2;76.0;3.0;194940;2014-11-08 13:57:13:329
8.121;0.0;7.5081;6.0489;0.7503;8.2579;2.0722;-0.7503;-0.7498;-23.3;21.4;-24.6;9.18;-4.19;-36.22;0.4;32.892;19.519552;-96.91521;;;158.06451;93.2;76.0;3.0;195441;2014-11-08 13:57:13:830
6.5888;1.379;7.3549;5.6177;2.0858;8.4099;0.971;-0.7067;-1.055;-26.7;21.6;-23.3;16.17;-9.58;-36.61;0.4;32.369;19.519552;-96.91521;;;158.06451;93.2;76.0;3.0;195943;2014-11-08 13:57:14:332
5.2097;1.2258;8.2743;6.9067;1.7995;7.9026;-1.697;-1.1866;0.2185;-27.6;21.6;-21.7;13.46;-9.73;-41.15;0.4;32.322;19.519552;-96.91521;;;158.06451;93.2;76.0;3.0;196443;2014-11-08 13:57:14:832
6.4355;1.8387;7.9678;5.8892;1.6387;7.9459;0.8528;0.2;0.6348;-27.2;21.2;-21.7;21.49;-7.06;-34.44;0.4;33.05;19.519552;-96.91521;;;158.06451;93.2;76.0;3.0;196943;2014-11-08 13:57:15:332
6.1291;1.6855;8.8872;5.5568;1.7062;8.6021;0.5722;-0.0207;0.2851;-17.8;20.8;-29.4;358.66;-9.46;-32.86;0.4;32.597;19.519552;-96.91521;;;158.06451;93.2;76.0;3.0;197443;2014-11-08 13:57:15:832
5.9759;2.4516;8.4275;6.1749;1.8794;8.3794;-0.199;0.5723;0.048;-18.4;19.0;-30.3;352.43;-10.23;-36.39;0.4;33.293;19.519552;-96.91521;;;158.06451;93.2;76.0;3.0;197943;2014-11-08 13:57:16:332
6.742;1.2258;8.2743;6.0963;2.1638;8.0995;0.6457;-0.938;0.1748;-17.1;16.8;-31.2;348.35;-13.31;-36.99;0.4;33.336;19.519552;-96.91521;;;158.06451;93.2;76.0;3.0;198443;2014-11-08 13:57:16:832
6.1291;3.0645;8.7339;6.3297;1.627;8.2329;-0.2006;1.4375;0.5011;-21.6;12.3;-32.3;344.07;-7.73;-38.13;0.4;37.246;19.519552;-96.91521;;;158.06451;93.2;76.0;3.0;198943;2014-11-08 13:57:17:332
5.6694;4.1371;7.0484;5.1704;4.5166;7.7822;0.499;-0.3795;-0.7338;-32.9;10.8;-22.8;27.93;-21.2;-32.56;0.4;38.496;19.519552;-96.91521;;;158.06451;93.2;76.0;3.0;199443;2014-11-08 13:57:17:832
5.0565;3.8307;9.1936;5.179;4.6278;7.6944;-0.1225;-0.7971;1.4992;-37.4;9.8;-16.7;40.91;-26.52;-33.94;0.4;40.492;19.519552;-96.91521;;;158.06451;93.2;76.0;3.0;199946;2014-11-08 13:57:18:335
4.5968;2.1452;9.0404;4.9284;2.032;9.2845;-0.3316;0.1132;-0.2441;-39.6;7.6;-11.8;65.68;-10.94;-27.96;0.4;36.684;19.519552;-96.91521;;;158.06451;93.2;76.0;3.0;200447;2014-11-08 13:57:18:836
6.4355;2.4516;9.0404;5.3951;1.9185;8.7673;0.5808;0.0735;-0.4931;-40.3;4.1;-9.9;72.06;-10.56;-31.61;0.4;36.638;19.519552;-96.91521;;;158.06451;93.2;76.0;3.0;200948;2014-11-08 13:57:19:337
5.5162;1.379;9.1936;5.1563;2.4415;8.8299;-0.0998;-0.6028;-0.096;-40.7;6.0;-10.1;67.39;-13.43;-30.28;0.4;34.967;19.519552;-96.91521;;;158.06451;93.2;76.0;3.0;201448;2014-11-08 13:57:19:837
5.3629;0.9194;8.7339;5.5355;1.2228;9.0934;-0.3258;-0.6099;-0.2062;-41.1;5.3;-9.3;70.84;-10.27;-29.34;0.4;35.99;19.519552;-96.91521;;;158.06451;93.2;76.0;3.0;201949;2014-11-08 13:57:20:338
6.4355;0.7661;8.4275;5.869;1.1108;8.5348;0.5665;-0.3447;-0.1073;-41.1;5.1;-9.1;74.74;-5.67;-33.59;0.4;34.973;19.519552;-96.91521;;;158.06451;93.2;76.0;3.0;202449;2014-11-08 13:57:20:838
5.0565;1.992;9.6533;5.3736;1.4544;8.9797;-0.3171;0.5375;0.6736;-41.1;3.9;-9.4;76.02;-5.84;-34.76;0.4;33.612;19.519552;-96.91521;;;158.06451;93.2;76.0;3.0;202949;2014-11-08 13:57:21:338
3.6774;0.9194;9.0404;5.2516;1.8992;9.5082;-1.5741;-0.9799;-0.4678;-41.1;3.0;-9.9;75.34;-11.24;-27.26;0.4;32.775;19.519552;-96.91521;;;158.06451;93.2;76.0;3.0;203449;2014-11-08 13:57:21:838
5.5162;0.1532;9.5001;4.4468;0.847;9.164;1.0694;-0.6938;0.3361;-41.3;0.0;-10.3;85.74;-5.4;-24.65;0.4;32.495;19.519552;-96.91521;;;158.06451;93.2;76.0;3.0;203949;2014-11-08 13:57:22:338
5.0565;1.0726;8.8872;5.2442;0.1745;9.5215;-0.1877;0.8981;-0.6343;-41.5;-10.3;-8.6;107.25;-0.53;-29.25;0.4;32.808;19.519552;-96.91521;;;158.06451;93.2;76.0;3.0;204449;2014-11-08 13:57:22:838
6.4355;0.6129;8.8872;5.2767;1.1693;8.6281;1.1588;-0.5564;0.2591;-39.3;-20.9;-7.3;120.75;-6.05;-29.16;0.4;34.033;19.519552;-96.91521;;;158.06451;93.2;76.0;3.0;204949;2014-11-08 13:57:23:338
6.2823;1.2258;8.7339;5.9857;1.1026;8.5717;0.2966;0.1232;0.1623;-36.6;-21.8;-6.6;125.9;-6.02;-34.93;0.4;34.564;19.519552;-96.91521;;;158.06451;93.2;76.0;3.0;205449;2014-11-08 13:57:23:838
4.75;1.6855;9.1936;4.8856;2.0705;8.9384;-0.1355;-0.385;0.2553;-36.7;-20.1;-7.3;118.75;-9.94;-31.32;0.4;33.506;19.519552;-96.91521;;;158.06451;93.2;76.0;3.0;205949;2014-11-08 13:57:24:338
4.4436;1.6855;9.3468;4.8868;1.7644;9.3352;-0.4432;-0.0789;0.0117;-36.9;-20.5;-8.1;118.4;-9.51;-27.63;0.4;33.379;19.519552;-96.91521;;;158.06451;93.2;76.0;3.0;206450;2014-11-08 13:57:24:839
4.2904;1.5323;8.8872;4.2063;1.7579;9.508;0.084;-0.2256;-0.6208;-35.5;-22.8;-9.4;123.98;-9.59;-24.79;0.4;34.442;19.519552;-96.91521;;;158.06451;93.2;76.0;3.0;206950;2014-11-08 13:57:25:339
4.75;1.8387;9.5001;4.3581;1.6401;9.447;0.392;0.1986;0.0531;-34.9;-22.6;-10.0;122.72;-9.31;-23.99;0.4;32.992;19.519552;-96.91521;;;158.06451;93.2;76.0;3.0;207450;2014-11-08 13:57:25:839
4.75;1.992;9.0404;4.8712;1.7076;9.1396;-0.1212;0.2844;-0.0992;-34.9;-23.1;-9.3;124.8;-9.45;-27.34;0.4;33.479;19.519552;-96.91521;;;158.06451;93.2;76.0;3.0;207951;2014-11-08 13:57:26:340
5.2097;2.1452;8.4275;5.041;2.0564;8.9991;0.1687;0.0888;-0.5716;-35.1;-23.3;-8.4;124.88;-10.01;-28.85;0.4;33.896;19.519552;-96.91521;;;158.06451;93.2;76.0;3.0;208451;2014-11-08 13:57:26:840
4.75;2.9113;8.7339;5.0276;2.3308;8.9022;-0.2776;0.5805;-0.1683;-34.3;-24.4;-7.7;125.62;-12.24;-29.24;0.4;33.854;19.519552;-96.91521;;;158.06451;93.2;76.0;3.0;208951;2014-11-08 13:57:27:340
4.5968;2.6049;8.7339;5.0185;2.5691;8.7048;-0.4217;0.0358;0.0291;-34.1;-24.8;-7.1;125.49;-14.34;-29.96;0.4;35.349;19.519552;-96.91521;;;158.06451;93.2;76.0;3.0;209451;2014-11-08 13:57:27:840
3.8307;2.7581;9.3468;4.3614;2.8066;9.1757;-0.3622;-0.0779;0.097;-38.1;-16.0;-7.1;112.55;-15.03;-26.77;0.4;34.158;19.519552;-96.91521;;;158.06451;93.2;76.0;3.0;209951;2014-11-08 13:57:28:340
5.3629;1.992;9.0404;4.4146;2.4031;9.304;0.8897;-0.4939;-0.9807;-40.5;-9.3;-7.8;98.43;-14.21;-23.34;0.4;38.304;19.519552;-96.91521;;;158.06451;93.2;76.0;3.0;210451;2014-11-08 13:57:28:840
5.0565;2.6049;9.0404;4.9632;2.2302;8.5872;0.0735;0.4755;0.2655;-41.0;-6.0;-8.2;90.49;-11.51;-31.33;0.4;36.596;19.519552;-96.91521;;;158.06451;93.2;76.0;3.0;210951;2014-11-08 13:57:29:340
4.4436;2.6049;9.1936;4.7942;2.3762;9.0139;-0.5947;0.0036;0.1946;-41.6;-6.0;-8.4;88.83;-13.85;-28.66;0.4;36.008;19.519552;-96.91521;;;158.06451;93.2;76.0;3.0;211451;2014-11-08 13:57:29:840
4.5968;1.992;9.0404;4.2641;2.588;9.339;0.0216;-0.2621;0.3321;-41.6;-5.5;-9.9;87.49;-13.5;-25.55;0.4;37.994;19.519552;-96.91521;;;158.06451;93.2;76.0;3.0;211951;2014-11-08 13:57:30:340
5.5162;1.6855;8.2743;4.9464;1.9502;9.1683;0.5659;-0.4567;-1.3077;-41.6;-5.5;-7.7;89.91;-10.6;-28.35;0.4;38.746;19.519552;-96.91521;;;158.06451;93.2;76.0;3.0;212451;2014-11-08 13:57:30:840
5.0565;0.1532;9.1936;5.7222;0.8785;8.5788;-0.7904;-0.4766;0.6496;-42.0;-5.5;-6.4;92.39;-7.4;-33.58;0.0;38.081;19.519552;-96.91521;;;158.06451;93.2;76.0;3.0;212951;2014-11-08 13:57:31:340
5.2097;0.3065;10.113;4.8995;0.2372;9.2732;0.2882;0.0347;0.2665;-42.0;-7.3;-9.2;101.91;-0.25;-28.47;0.0;37.5;19.519552;-96.91521;;;158.06451;93.2;76.0;3.0;213452;2014-11-08 13:57:31:841
5.3629;0.6129;9.6533;4.8271;0.7374;9.3287;-0.0901;-0.0542;-0.0174;-41.6;-7.5;-9.2;99.36;-3.2;-27.29;0.0;39.904;19.519552;-96.91521;;;158.06451;93.2;76.0;3.0;213952;2014-11-08 13:57:32:341
4.75;1.992;9.1936;5.0866;0.5208;9.203;-0.1659;1.4205;-0.0446;-41.4;-7.5;-9.4;100.56;-2.25;-28.49;0.0;41.045;19.519552;-96.91521;;;158.06451;93.2;76.0;3.0;214452;2014-11-08 13:57:32:841
4.75;1.5323;9.1936;4.6943;1.7048;9.282;0.0699;0.0039;-0.1722;-41.8;7.4;-8.8;71.36;-9.31;-26.83;0.0;41.88;19.519552;-96.91521;;;158.06451;93.2;76.0;3.0;214952;2014-11-08 13:57:33:341
4.5968;-0.1532;9.5001;4.6448;1.9826;9.0762;-0.0234;-2.1711;0.4123;-31.4;21.8;-14.9;37.72;-11.0;-27.1;0.0;43.464;19.519552;-96.91521;;;158.06451;93.2;76.0;3.0;215452;2014-11-08 13:57:33:841
5.9759;0.3065;8.5807;4.9796;-0.9146;9.2279;0.8549;1.322;-0.5231;-20.9;25.0;-23.2;19.56;0.96;-27.03;0.4;42.452;19.519552;-96.91521;;;158.06451;93.2;76.0;3.0;215952;2014-11-08 13:57:34:341
5.5162;1.2258;10.113;6.1084;0.8875;8.7013;-0.4879;0.6016;1.6154;-22.2;23.7;-23.4;11.19;-1.77;-34.8;0.4;40.047;19.519552;-96.91521;;;158.06451;93.2;76.0;3.0;216453;2014-11-08 13:57:34:842
3.9839;1.2258;8.7339;4.4024;0.2133;9.6588;-0.4444;0.8463;-0.8441;-22.9;24.2;-23.1;14.64;-4.89;-29.07;0.4;36.507;19.519552;-96.91521;;;158.06451;93.2;76.0;3.0;216953;2014-11-08 13:57:35:342
4.5968;1.6855;7.8146;4.7351;2.4778;9.0903;-0.2885;-0.6236;-1.1794;-19.9;22.9;-24.1;11.32;-10.77;-29.34;0.4;37.037;19.519552;-96.91521;;;158.06451;93.2;76.0;3.0;217454;2014-11-08 13:57:35:843
5.3629;1.2258;10.113;5.3747;2.1269;9.2968;0.1232;-0.6805;0.5875;-13.5;22.0;-27.7;1.89;-12.36;-28.95;0.4;39.756;19.519552;-96.91521;;;158.06451;93.2;76.0;3.0;217954;2014-11-08 13:57:36:343
4.4436;1.2258;10.2662;4.9058;1.0726;8.5798;-0.8396;0.0865;1.7428;-15.5;21.4;-28.3;2.72;-5.42;-26.04;0.4;40.025;19.519552;-96.91521;;;158.06451;93.2;76.0;3.0;218454;2014-11-08 13:57:36:843
5.2097;1.5323;7.8146;4.3364;1.3979;9.1217;0.691;0.1478;-1.4583;-17.3;20.8;-28.6;6.52;-7.88;-25.43;0.4;41.067;19.519552;-96.91521;;;158.06451;93.2;76.0;3.0;218954;2014-11-08 13:57:37:343
4.4436;1.6855;9.6533;4.7596;0.6205;9.5478;-0.2429;0.5714;-0.2141;-31.3;20.6;-18.8;34.22;-7.18;-30.78;0.4;40.908;19.519552;-96.91521;;;158.06451;93.2;76.0;3.0;219454;2014-11-08 13:57:37:843
5.0565;1.2258;9.8065;5.3597;1.6183;8.5854;-1.8782;-0.3082;-0.4034;-36.2;17.3;-12.4;48.49;-9.08;-31.98;0.4;40.594;19.519552;-96.91521;;;158.06451;93.2;76.0;3.0;219954;2014-11-08 13:57:38:343
4.9033;2.1452;9.5001;4.6501;1.0126;9.1198;0.621;1.2167;0.0565;-38.9;11.0;-10.6;57.67;-6.55;-28.03;0.4;39.384;19.519552;-96.91521;;;158.06451;93.2;76.0;3.0;220455;2014-11-08 13:57:38:844
4.75;0.7661;9.1936;4.5493;0.8625;9.3564;0.0845;0.0738;0.7261;-41.2;1.5;-9.5;77.33;-8.84;-28.22;0.4;41.658;19.519552;-96.91521;;;158.06451;93.2;76.0;3.0;220955;2014-11-08 13:57:39:344
4.5968;1.5323;8.8872;4.9513;1.0701;8.931;-0.3272;0.2144;-0.1408;-41.5;-1.5;-6.6;86.98;-5.98;-29.0;0.4;42.532;19.519552;-96.91521;;;158.06451;93.2;76.0;3.0;221455;2014-11-08 13:57:39:844
4.4436;1.6855;9.0404;4.6443;1.7741;9.2722;-0.2953;-0.0978;-0.3534;-42.1;-1.8;-6.6;85.43;-8.4;-27.23;0.4;43.224;19.519552;-96.91521;;;158.06451;93.2;76.0;3.0;221955;2014-11-08 13:57:40:344
5.2097;1.5323;8.7339;4.8206;1.5908;9.2545;0.386;-0.1217;-0.4568;-42.1;-5.1;-5.6;92.02;-8.67;-27.51;0.4;42.024;19.519552;-96.91521;;;158.06451;93.2;76.0;3.0;222455;2014-11-08 13:57:40:844
5.3629;1.6855;9.6533;5.0526;1.4495;8.8571;0.3279;0.163;0.7481;-42.1;-6.3;-5.6;93.33;-8.87;-29.18;0.4;41.447;19.519552;-96.91521;;;158.06451;93.2;76.0;3.0;222955;2014-11-08 13:57:41:344
4.4436;0.9194;8.4275;4.6718;1.5953;8.9202;-0.3888;-0.7;-0.5474;-41.9;-6.3;-5.8;93.4;-8.79;-29.15;0.4;44.0;19.519552;-96.91521;;;158.06451;93.2;76.0;3.0;223455;2014-11-08 13:57:41:844
6.5888;-1.2258;13.484;5.2603;2.3438;8.6012;1.1415;-3.9895;4.8465;-41.9;-7.1;-6.1;94.37;-9.67;-29.16;0.4;43.252;19.519552;-96.91521;;;158.06451;93.2;76.0;3.0;223955;2014-11-08 13:57:42:344
5.2097;1.992;8.4275;4.8181;1.1208;9.4662;0.3512;0.8612;-1.2701;-41.7;-6.3;-5.2;95.68;-6.02;-26.98;0.4;39.0;19.519552;-96.91521;;;158.06451;93.2;76.0;3.0;224455;2014-11-08 13:57:42:844
5.8226;1.0726;8.5807;4.8875;2.1285;8.99;0.4718;-1.0078;-0.4772;-41.7;-6.2;-3.7;92.11;-10.46;-32.12;0.4;37.82;19.519552;-96.91521;;;158.06451;93.2;76.0;3.0;224955;2014-11-08 13:57:43:344
4.9033;1.5323;9.0404;5.3296;1.4855;9.2328;-0.2424;0.2135;-0.1378;-39.9;-17.0;-3.0;107.06;-8.27;-27.05;0.4;40.506;19.519552;-96.91521;;;158.06451;93.2;76.0;3.0;225455;2014-11-08 13:57:43:844
6.2823;1.5323;8.8872;5.1998;0.6342;8.8116;1.0093;0.9879;0.1676;-36.3;-19.7;-3.2;121.53;-7.25;-29.83;0.4;38.692;19.519552;-96.91521;;;158.06451;93.2;76.0;3.0;225956;2014-11-08 13:57:44:345
5.2097;1.8387;9.6533;5.5863;1.1153;8.9107;-0.3205;0.8948;0.6242;-38.4;-10.2;-3.8;103.93;-6.05;-32.08;0.4;38.015;19.519552;-96.91521;;;158.06451;93.2;76.0;3.0;226456;2014-11-08 13:57:44:845
4.2904;2.2984;9.0404;4.0183;2.1823;9.3819;0.6147;-0.073;0.2572;-39.0;-3.6;-5.2;94.9;-5.58;-28.78;0.4;36.969;19.519552;-96.91521;;;158.06451;93.2;76.0;3.0;226957;2014-11-08 13:57:45:346
4.9033;1.8387;11.0323;4.5949;2.3561;9.2892;-0.5516;-1.0526;0.0941;-39.7;5.5;-6.1;71.7;-12.81;-26.32;0.4;35.55;19.519552;-96.91521;;;158.06451;93.2;76.0;3.0;227457;2014-11-08 13:57:45:846
5.5162;0.6129;9.1936;4.5533;1.3059;9.0609;0.5658;-0.693;-0.0732;-34.1;17.8;-9.7;59.6;-9.43;-26.41;0.4;33.9;19.519552;-96.91521;;;158.06451;93.2;76.0;3.0;227957;2014-11-08 13:57:46:346
4.75;1.0726;9.1936;5.1865;0.384;9.0924;-0.3506;0.5411;0.1203;-22.0;23.2;-17.8;22.43;-2.43;-30.22;0.4;33.755;19.519552;-96.91521;;;158.06451;93.2;76.0;3.0;228463;2014-11-08 13:57:46:852
4.75;1.379;9.1936;4.6124;1.6706;9.4381;-0.0794;-0.0457;0.2205;-13.7;22.3;-24.3;3.85;-7.72;-26.71;0.4;33.273;19.519552;-96.91521;;;158.06451;93.2;76.0;3.0;228963;2014-11-08 13:57:47:352
5.0565;1.6855;8.8872;4.7894;1.8055;9.1627;0.2671;-0.12;-0.2756;-6.8;19.0;-30.1;348.41;-8.85;-26.16;0.4;32.798;19.519552;-96.91521;;;158.06451;93.2;76.0;3.0;229463;2014-11-08 13:57:47:852
5.0565;1.6855;8.8872;5.1169;1.4827;8.9681;-0.0604;0.0496;-0.2342;-4.2;13.5;-31.6;325.61;-8.17;-29.71;0.4;34.278;19.519552;-96.91521;;;158.06451;93.2;76.0;3.0;229963;2014-11-08 13:57:48:352
5.0565;1.8387;8.8872;5.1033;1.7955;8.9713;0.1064;0.1964;0.2223;-4.2;13.7;-31.7;326.85;-9.87;-29.63;0.4;33.982;19.519552;-96.91521;;;158.06451;93.2;76.0;3.0;230463;2014-11-08 13:57:48:852
5.2097;1.6855;8.8872;5.2902;1.6789;8.895;-0.0805;0.0066;-0.0078;-3.8;13.5;-31.9;326.42;-10.17;-30.18;0.4;32.781;19.519552;-96.91521;;;158.06451;93.2;76.0;3.0;230963;2014-11-08 13:57:49:352
4.9033;1.8387;9.1936;5.0028;1.6285;9.1034;-0.0995;0.2102;0.0903;-4.6;17.4;-31.2;329.94;-8.49;-30.31;0.4;32.93;19.519552;-96.91521;;;158.06451;93.2;76.0;3.0;231464;2014-11-08 13:57:49:853
4.4436;0.7661;9.6533;4.9104;1.956;9.2175;-0.3136;-1.0367;-0.1771;-7.5;19.6;-29.9;340.34;-9.05;-28.9;0.4;33.716;19.519552;-96.91521;;;158.06451;93.2;75.0;3.0;231964;2014-11-08 13:57:50:353
4.2904;0.9194;9.0404;4.5818;0.7202;9.3008;-0.2915;0.1991;0.0461;-13.4;22.8;-26.6;358.81;-4.75;-26.72;0.4;34.185;19.519552;-96.91521;;;158.06451;93.2;75.0;3.0;232465;2014-11-08 13:57:50:854
4.9033;1.992;9.6533;4.6921;1.1582;9.4288;-0.4017;0.6805;0.0713;-25.1;22.3;-20.3;28.28;-6.28;-26.46;0.4;34.094;19.519552;-96.91521;;;158.06451;93.2;75.0;3.0;232965;2014-11-08 13:57:51:354
4.4436;2.2984;9.6533;5.1237;1.6402;9.1316;-0.8333;0.505;0.0621;-30.5;19.7;-16.7;34.32;-8.98;-27.73;0.4;33.747;19.519552;-96.91521;;;158.06451;93.2;75.0;3.0;233466;2014-11-08 13:57:51:855
5.3629;-0.1532;9.1936;4.6485;1.3747;9.5061;0.7144;-1.6811;-0.6189;-34.5;18.0;-11.6;48.2;-9.66;-27.17;0.4;34.382;19.519552;-96.91521;;;158.06451;93.2;75.0;3.0;233966;2014-11-08 13:57:52:355
6.1291;1.992;8.121;5.316;0.7715;9.0881;0.5067;1.0673;-0.9671;-39.9;7.3;-5.2;77.09;-1.03;-29.37;0.4;35.144;19.519552;-96.91521;;;158.06451;93.2;75.0;3.0;234466;2014-11-08 13:57:52:855
5.0565;1.5323;8.8872;6.2637;1.4721;8.5489;-1.054;-0.0931;-0.2746;-40.4;5.0;-4.7;70.22;-9.24;-36.91;0.4;34.295;19.519552;-96.91521;;;158.06451;93.2;75.0;3.0;234966;2014-11-08 13:57:53:355
5.9759;2.4516;8.8872;5.5285;1.7248;8.5956;0.7538;0.5736;-0.3213;-40.6;1.2;-4.7;81.6;-8.3;-32.01;0.4;34.16;19.519552;-96.91521;;;158.06451;93.2;75.0;3.0;235466;2014-11-08 13:57:53:855
5.8226;0.6129;8.4275;5.2717;1.3789;8.8576;0.7042;-0.766;0.1828;-41.4;-0.4;-3.6;84.43;-7.62;-30.76;0.4;33.566;19.519552;-96.91521;;;158.06451;93.2;75.0;3.0;235966;2014-11-08 13:57:54:355
6.1291;0.7661;7.5081;6.2593;0.5812;8.641;-0.2835;-0.1215;1.6252;-41.6;-1.6;-2.7;90.93;-3.12;-35.92;0.4;32.046;19.519552;-96.91521;;;158.06451;93.2;75.0;3.0;236466;2014-11-08 13:57:54:855
5.6694;1.8387;7.8146;5.5267;1.8484;8.4035;0.2959;0.45;-0.2825;-41.8;-8.3;-2.2;97.94;-7.39;-33.88;0.4;33.589;19.519552;-96.91521;;;158.06451;93.2;75.0;3.0;236967;2014-11-08 13:57:55:356
5.0565;1.5323;9.5001;6.2009;2.1117;8.1726;-0.838;0.4932;0.5613;-41.4;-12.9;-2.0;100.94;-11.83;-36.26;0.4;33.222;19.519552;-96.91521;;;158.06451;93.2;75.0;3.0;237467;2014-11-08 13:57:55:856
5.8226;1.5323;8.7339;5.0126;1.2337;8.9918;0.81;0.2986;-0.4111;-40.6;-12.8;-2.9;105.26;-8.9;-30.41;0.4;33.062;19.519552;-96.91521;;;158.06451;93.2;75.0;3.0;237968;2014-11-08 13:57:56:357
5.0565;2.2984;8.5807;5.7494;1.5906;8.9293;-0.693;0.7078;-0.3486;-40.4;-13.0;-3.5;106.79;-7.75;-33.43;0.4;32.57;19.519552;-96.91521;;;158.06451;93.2;75.0;3.0;238469;2014-11-08 13:57:56:858
5.3629;2.4516;8.5807;5.0088;2.363;8.8817;0.0477;0.2418;0.6184;-41.1;-3.1;-6.6;84.69;-13.05;-29.42;0.4;35.123;19.519552;-96.91521;;;158.06451;93.2;75.0;3.0;238969;2014-11-08 13:57:57:358
4.4436;1.6855;9.1936;4.4446;1.713;9.573;0.1522;-0.1807;-0.073;-41.3;2.7;-9.6;78.61;-12.86;-29.77;0.4;32.713;19.519552;-96.91521;;;158.06451;93.2;75.0;3.0;239469;2014-11-08 13:57:57:858
4.2904;1.992;9.9598;4.5677;1.7126;9.1901;-0.1241;0.2794;0.0035;-33.2;16.7;-16.0;46.15;-9.47;-26.43;0.4;32.621;19.519552;-96.91521;;;158.06451;93.2;75.0;3.0;239969;2014-11-08 13:57:58:358
4.75;2.1452;8.4275;4.4809;1.7852;9.5564;0.2692;-0.0997;-0.2096;-21.3;19.6;-24.5;19.57;-9.6;-25.12;0.4;33.012;19.519552;-96.91521;;;158.06451;93.2;75.0;3.0;240470;2014-11-08 13:57:58:859
5.0565;2.2984;9.1936;4.7827;2.1698;8.9498;0.2738;-0.0246;0.397;-19.0;19.3;-26.9;12.37;-8.66;-26.92;0.4;33.747;19.519552;-96.91521;;;158.06451;93.2;75.0;3.0;240970;2014-11-08 13:57:59:359
5.2097;2.2984;9.9598;4.858;2.4578;9.015;-0.3921;-0.1898;0.915;-20.1;19.8;-25.9;10.9;-12.81;-28.56;0.4;35.171;19.519552;-96.91521;;;158.06451;93.2;75.0;3.0;241471;2014-11-08 13:57:59:860
4.9033;1.8387;9.3468;4.7216;1.538;9.4941;-0.3083;-0.2607;-0.9018;-19.9;19.6;-26.3;13.45;-10.97;-26.75;0.4;33.013;19.519552;-96.91521;;;158.06451;93.2;75.0;3.0;241971;2014-11-08 13:58:00:360
4.5968;2.2984;9.6533;4.4076;2.0478;9.3983;-0.1768;0.3891;-0.4049;-20.7;19.6;-25.7;17.06;-9.49;-25.61;0.4;33.469;19.519552;-96.91521;;;158.06451;93.2;75.0;3.0;242472;2014-11-08 13:58:00:861
4.1371;2.9113;8.7339;4.5386;2.3208;9.2509;0.0947;0.2366;-0.0418;-20.9;19.4;-25.7;16.25;-13.11;-25.88;0.4;33.404;19.519552;-96.91521;;;158.06451;93.2;75.0;3.0;242972;2014-11-08 13:58:01:361
3.6774;2.2984;9.8065;4.2041;2.8284;9.2928;-0.4373;-0.5783;0.5034;-20.7;18.6;-26.2;17.34;-15.5;-24.34;0.4;34.568;19.519552;-96.91521;;;158.06451;93.2;75.0;3.0;243472;2014-11-08 13:58:01:861
3.5242;2.9113;9.6533;3.9125;2.5833;9.3011;-0.3643;0.3606;0.3567;-20.5;17.5;-26.8;17.33;-14.36;-22.81;0.4;35.5;19.519552;-96.91521;;;158.06451;93.2;75.0;3.0;243973;2014-11-08 13:58:02:362
4.2904;2.6049;9.6533;3.8575;2.801;9.4814;0.3996;-0.2175;0.2121;-20.3;16.9;-27.2;19.45;-14.77;-21.48;0.4;37.637;19.519552;-96.91521;;;158.06451;93.2;75.0;3.0;244474;2014-11-08 13:58:02:863
5.0565;2.7581;9.3468;4.3304;2.5725;9.2341;0.8162;0.1631;0.1041;-31.1;16.5;-18.5;40.77;-14.16;-25.12;0.4;33.292;19.519552;-96.91521;;;158.06451;93.2;75.0;3.0;244975;2014-11-08 13:58:03:364
4.1371;1.0726;9.5001;3.7903;1.8219;9.4292;0.3521;-1.0879;-0.035;-35.1;15.0;-16.4;53.4;-10.16;-21.9;0.4;33.836;19.519552;-96.91521;;;158.06451;93.2;75.0;3.0;245475;2014-11-08 13:58:03:864
4.5968;1.6855;9.5001;4.2009;1.9197;9.4246;0.4122;-0.1214;0.0925;-37.7;8.4;-13.8;65.99;-7.4;-24.03;0.4;35.303;19.519552;-96.91521;;;158.06451;93.2;75.0;3.0;245975;2014-11-08 13:58:04:364
4.2904;2.2984;9.5001;4.7798;1.6173;9.5218;-0.4022;0.6309;0.0213;-39.8;3.9;-11.2;72.9;-9.27;-26.08;0.4;33.532;19.519552;-96.91521;;;158.06451;93.2;75.0;3.0;246475;2014-11-08 13:58:04:864
4.9033;2.1452;9.1936;4.0154;2.7402;9.1432;0.7659;-0.5723;0.044;-39.6;2.7;-11.5;73.74;-14.43;-23.6;0.4;33.158;19.519552;-96.91521;;;158.06451;93.2;75.0;3.0;246975;2014-11-08 13:58:05:364
4.1371;1.5323;9.3468;5.122;2.2284;9.1427;-1.0033;-0.7125;0.2883;-40.4;2.5;-10.7;72.79;-12.33;-29.22;0.4;36.161;19.519552;-96.91521;;;158.06451;93.2;75.0;3.0;247476;2014-11-08 13:58:05:865
5.0565;0.9194;9.1936;4.4439;0.9821;9.2972;0.815;-0.0924;-0.2163;-40.6;-0.6;-10.3;83.67;-6.23;-23.16;0.4;33.413;19.519552;-96.91521;;;158.06451;93.2;75.0;3.0;247977;2014-11-08 13:58:06:366
4.2904;1.5323;8.7339;4.9113;1.5373;9.4216;-0.3215;-0.2578;-0.7267;-40.8;-1.3;-9.1;88.07;-6.28;-29.16;0.4;33.312;19.519552;-96.91521;;;158.06451;93.2;75.0;3.0;248477;2014-11-08 13:58:06:866
4.2904;1.992;9.3468;4.9519;1.6678;9.0203;-0.9938;-0.8345;1.8072;-40.8;-2.1;-9.1;85.58;-9.21;-28.77;0.4;32.188;19.519552;-96.91521;;;158.06451;93.2;75.0;3.0;248977;2014-11-08 13:58:07:366
4.75;1.6855;8.7339;3.9794;0.9896;9.4121;0.9195;0.6668;0.1919;-40.6;-1.6;-9.5;88.75;-6.44;-23.07;0.4;32.91;19.519552;-96.91521;;;158.06451;93.2;75.0;3.0;249477;2014-11-08 13:58:07:866
3.0645;2.1452;8.8872;4.8906;1.8023;9.5464;-2.8116;0.7847;-1.3204;-40.4;-1.6;-9.7;84.57;-8.27;-27.42;0.4;32.61;19.519552;-96.91521;;;158.06451;93.2;75.0;3.0;249977;2014-11-08 13:58:08:366
3.5242;1.992;10.8791;4.4772;1.7805;9.3804;0.8982;0.6491;0.7515;-40.2;-1.0;-11.6;83.19;-10.65;-22.32;0.4;32.563;19.519552;-96.91521;;;158.06451;93.2;75.0;3.0;250477;2014-11-08 13:58:08:866
4.2904;1.0726;9.0404;3.6076;0.9347;9.6327;0.2387;0.5435;-1.0816;-40.2;-0.1;-11.8;82.69;-8.84;-23.15;0.4;33.138;19.519552;-96.91521;;;158.06451;93.2;75.0;3.0;250977;2014-11-08 13:58:09:366
4.1371;1.379;10.113;5.0014;0.916;9.3542;-2.8679;1.1743;-0.8754;-40.6;0.6;-11.0;82.61;-6.43;-25.81;0.4;32.938;19.519552;-96.91521;;;158.06451;93.2;75.0;3.0;251478;2014-11-08 13:58:09:867
5.2097;1.8387;10.4194;4.1024;1.3514;9.2049;1.1073;0.4873;1.2146;-40.4;2.8;-11.2;79.21;-7.84;-22.01;0.4;31.926;19.519552;-96.91521;;;158.06451;93.2;75.0;3.0;251978;2014-11-08 13:58:10:367
4.5968;0.7661;9.3468;4.3524;0.9095;9.9352;0.2444;-0.1434;-0.5884;-40.2;2.9;-11.2;80.88;-4.79;-23.66;0.4;32.264;19.519552;-96.91521;;;158.06451;93.2;75.0;3.0;252479;2014-11-08 13:58:10:868
4.75;0.6129;10.2662;4.6113;0.9398;9.2515;0.1387;-0.3269;1.0147;-40.3;3.0;-11.0;81.05;-4.46;-24.11;0.4;31.704;19.519552;-96.91521;;;158.06451;93.2;75.0;3.0;252979;2014-11-08 13:58:11:368
4.5968;1.0726;9.9598;3.9889;1.242;9.3325;0.6079;-0.1695;0.6273;-40.5;3.5;-11.0;79.56;-6.38;-24.03;0.4;31.624;19.519552;-96.91521;;;158.06451;93.2;75.0;3.0;253480;2014-11-08 13:58:11:869
4.1371;0.4597;9.3468;4.373;0.9188;9.8446;-0.2359;-0.4592;-0.4977;-40.3;4.0;-11.3;77.99;-5.4;-26.39;0.4;31.84;19.519552;-96.91521;;;158.06451;93.2;75.0;3.0;253980;2014-11-08 13:58:12:369
4.75;0.1532;9.3468;4.1323;0.7164;9.6812;0.6177;-0.5632;-0.3344;-40.1;3.7;-12.2;80.69;-2.97;-21.97;0.4;31.763;19.519552;-96.91521;;;158.06451;93.2;75.0;3.0;254480;2014-11-08 13:58:12:869
3.6774;1.0726;8.7339;4.6884;0.5516;9.77;-1.0109;0.521;-1.036;-40.7;2.3;-11.3;83.66;-3.26;-25.72;0.4;30.903;19.519552;-96.91521;;;158.06451;93.2;75.0;3.0;254981;2014-11-08 13:58:13:370
3.9839;1.0726;9.5001;4.2481;0.9908;9.7556;-0.2642;0.0818;-0.2555;-41.1;-9.9;-10.5;97.79;-5.24;-22.49;0.4;32.495;19.519552;-96.91521;;;158.06451;93.2;75.0;3.0;255481;2014-11-08 13:58:13:870
4.4436;1.5323;9.1936;3.7817;1.6186;9.7316;0.6618;-0.0863;-0.538;-36.7;-20.7;-10.7;119.32;-8.81;-21.24;0.4;31.693;19.519552;-96.91521;;;158.06451;93.2;75.0;3.0;255981;2014-11-08 13:58:14:370
4.2904;1.379;9.8065;4.2668;1.2639;9.4221;0.0236;0.1152;0.3845;-32.4;-24.6;-12.2;130.78;-8.38;-23.2;0.4;32.358;19.519552;-96.91521;;;158.06451;93.2;75.0;3.0;256482;2014-11-08 13:58:14:871
3.6774;0.7661;10.2662;4.14;0.8551;9.784;-0.4626;-0.089;0.4822;-25.7;-28.3;-15.9;144.81;-6.23;-22.9;0.4;31.762;19.519552;-96.91521;;;158.06451;93.2;75.0;3.0;256983;2014-11-08 13:58:15:372
3.9839;0.9194;9.8065;3.9561;1.0365;9.6178;0.0278;-0.1172;0.1887;-19.9;-29.9;-18.0;159.15;-2.64;-23.9;0.4;32.546;19.519552;-96.91521;;;158.06451;93.2;75.0;3.0;257483;2014-11-08 13:58:15:872
3.5242;1.0726;9.3468;3.8069;0.9502;9.8343;0.6083;-0.3778;0.3087;-15.3;-30.4;-19.0;159.68;-7.87;-21.53;0.4;33.501;19.519552;-96.91521;;;158.06451;93.2;75.0;3.0;257983;2014-11-08 13:58:16:372
4.75;1.2258;8.2743;4.1149;1.4885;9.6056;0.1329;0.8099;0.4261;-3.9;-26.8;-28.5;195.44;-5.48;-21.83;0.4;33.676;19.519552;-96.91521;;;158.06451;93.2;75.0;3.0;258483;2014-11-08 13:58:16:872
5.6694;0.6129;9.6533;4.9534;1.3522;9.1416;0.4566;-1.083;0.0187;-6.8;-24.8;-29.4;199.09;-10.0;-26.7;0.4;32.713;19.519552;-96.91521;;;158.06451;93.2;75.0;3.0;258983;2014-11-08 13:58:17:372
5.0565;-0.4597;9.0404;5.5299;-0.4175;8.8882;-0.2046;-7.0E-4;-0.0046;-7.8;-24.9;-29.5;198.07;2.28;-31.89;0.4;40.529;19.519552;-96.91521;;;158.06451;93.2;75.0;3.0;259483;2014-11-08 13:58:17:872
4.4436;1.0726;8.2743;5.2765;0.1441;9.2134;-0.7484;0.706;0.1232;-8.0;-28.8;-26.2;196.82;1.46;-31.0;0.4;36.345;19.519552;-96.91521;;;158.06451;93.2;75.0;3.0;259984;2014-11-08 13:58:18:373
4.2904;2.1452;9.5001;4.4449;2.6446;9.0218;-0.0285;-0.1157;0.5647;-8.2;-33.0;-20.6;184.94;-11.44;-27.02;0.4;31.987;19.519552;-96.91521;;;158.06451;93.2;75.0;3.0;260487;2014-11-08 13:58:18:876
3.9839;1.0726;9.3468;4.6894;1.8045;9.5229;-0.739;-0.2441;0.7003;-9.4;-32.1;-21.7;183.2;-9.79;-25.96;0.4;32.544;19.519552;-96.91521;;;158.06451;93.2;75.0;3.0;260988;2014-11-08 13:58:19:377
5.2097;1.5323;9.6533;4.5111;1.2852;9.161;0.797;0.383;-0.8162;-11.2;-32.5;-21.0;177.74;-7.51;-24.91;0.4;36.7;19.519552;-96.91521;;;158.06451;93.2;75.0;3.0;261489;2014-11-08 13:58:19:878
4.2904;1.2258;9.1936;5.1108;1.3287;9.1634;-1.0701;0.1191;-0.0017;-12.2;-31.5;-21.8;180.49;-7.22;-29.15;0.4;36.662;19.519552;-96.91521;;;158.06451;93.2;75.0;3.0;261990;2014-11-08 13:58:20:379
4.4436;0.9194;10.2662;3.779;1.4706;9.5728;-0.0029;-0.374;1.364;-24.5;-30.7;-18.9;150.33;-8.13;-21.54;0.4;33.885;19.519552;-96.91521;;;158.06451;93.2;75.0;3.0;262490;2014-11-08 13:58:20:879
2.7581;2.2984;10.2662;3.1929;1.4229;9.968;-0.9076;1.0758;0.2419;-26.5;-30.1;-17.8;143.82;-7.74;-17.76;0.4;33.892;19.519552;-96.91521;;;158.06451;93.2;75.0;3.0;262991;2014-11-08 13:58:21:380
3.6774;-0.3065;9.3468;2.981;1.5134;10.384;1.0784;-1.6587;-1.9581;-35.3;-20.4;-16.5;116.79;-10.76;-14.24;0.4;36.076;19.519552;-96.91521;;;158.06451;93.2;75.0;3.0;263491;2014-11-08 13:58:21:880
3.9839;0.4597;9.0404;3.8799;-0.1046;9.5124;0.2739;0.0194;1.5598;-39.6;-7.4;-14.4;109.37;-0.72;-22.56;0.4;33.81;19.519552;-96.91521;;;158.06451;93.2;75.0;3.0;263991;2014-11-08 13:58:22:380
4.2904;0.6129;9.6533;3.6541;0.7804;9.9515;0.6264;-0.3303;-0.1308;-39.4;4.9;-13.7;77.69;-4.21;-20.16;0.4;34.3;19.519552;-96.91521;;;158.06451;93.2;75.0;3.0;264491;2014-11-08 13:58:22:880
6.5888;-1.0726;8.7339;5.0235;0.0817;9.5409;0.0199;0.0334;-0.3207;-41.3;-5.8;-1.5;99.27;-0.43;-27.77;0.4;33.75;19.519552;-96.91521;;;158.06451;93.2;75.0;3.0;264992;2014-11-08 13:58:23:381
7.5081;0.3065;6.4355;6.3413;0.5769;7.6421;1.9021;-0.3414;-0.2882;-40.7;-15.9;1.1;115.2;-0.08;-35.57;0.4;32.461;19.519552;-96.91521;;;158.06451;93.2;75.0;3.0;265493;2014-11-08 13:58:23:882
6.4355;0.0;3.6774;8.3569;2.1823;6.3947;-1.2143;0.772;-3.5098;-27.3;-32.7;-5.4;148.09;-2.9;-48.39;0.4;39.739;19.519552;-96.91521;;;158.06451;93.2;75.0;3.0;265993;2014-11-08 13:58:24:382
9.1936;-3.0645;6.2823;7.5055;-3.0857;6.4798;3.095;-1.4865;1.5435;-40.9;-11.6;-8.8;127.01;-8.5;-57.12;0.4;32.503;19.519552;-96.91521;;;158.06451;93.2;75.0;3.0;266493;2014-11-08 13:58:24:882
8.2743;-2.7581;4.1371;8.2372;-3.7027;4.828;0.3903;0.1897;-1.0547;-40.4;-14.9;-3.7;148.33;21.2;-59.62;0.4;31.962;19.519552;-96.91521;;;158.06451;93.2;75.0;3.0;266993;2014-11-08 13:58:25:382
9.3468;-2.7581;4.9033;8.562;-2.9933;4.3494;0.5002;0.1655;0.8889;-40.5;-16.6;-2.7;150.46;17.31;-63.07;0.4;32.411;19.519552;-96.91521;;;158.06451;93.2;75.0;3.0;267493;2014-11-08 13:58:25:882
6.1291;-1.2258;7.9678;7.5259;-1.8794;5.9582;-0.0448;0.8776;2.1134;-40.3;-9.9;-5.6;129.44;11.08;-51.63;0.4;34.625;19.519552;-96.91521;;;158.06451;93.2;75.0;3.0;267994;2014-11-08 13:58:26:383
5.5162;0.6129;9.3468;6.2043;-0.518;8.4374;0.0802;1.5753;0.5352;-40.7;-12.2;-6.3;114.51;2.92;-36.22;0.4;32.533;19.519552;-96.91521;;;158.06451;93.2;75.0;3.0;268495;2014-11-08 13:58:26:884
6.5888;4.9033;4.75;5.9982;3.4438;7.013;0.9386;1.799;-1.2547;-40.5;-12.9;9.4;109.29;-1.27;-34.1;0.4;32.847;19.519552;-96.91521;;;158.06451;93.2;75.0;3.0;268995;2014-11-08 13:58:27:384
0.4597;1.2258;9.5001;5.071;4.4432;6.2623;-3.2386;-3.0244;3.9439;-36.5;-10.9;-22.2;18.73;-33.55;-52.11;0.4;34.677;19.519552;-96.91521;;;158.06451;93.2;75.0;3.0;269496;2014-11-08 13:58:27:885
-1.6855;0.0;10.4194;-1.7167;0.8809;10.5768;-0.9866;0.126;-0.5938;-21.5;-11.0;-32.2;106.22;-6.15;2.41;0.4;36.272;19.519552;-96.91521;;;158.06451;93.2;75.0;3.0;269996;2014-11-08 13:58:28:385
-8.8872;4.75;5.8226;-4.0045;2.2377;9.7201;-4.9926;3.4364;-3.6704;0.5;-31.8;-24.0;162.83;-12.02;22.39;0.4;34.044;19.519552;-96.91521;;;158.06451;93.2;75.0;3.0;270496;2014-11-08 13:58:28:885
-6.742;5.3629;3.6774;-9.8197;5.8096;4.1273;2.9152;0.5717;1.6514;0.5;-34.9;-19.4;156.8;-26.84;62.42;0.4;33.023;19.519552;-96.91521;;;158.06451;93.2;75.0;3.0;270996;2014-11-08 13:58:29:385
-4.75;6.1291;4.9033;-6.4355;6.1538;4.1424;2.3977;-0.6276;1.2726;-8.5;-30.7;-24.8;133.9;-36.24;59.82;0.4;32.338;19.519552;-96.91521;;;158.06451;93.2;75.0;3.0;271496;2014-11-08 13:58:29:885
0.6129;6.4355;10.4194;-3.7539;6.8419;6.9726;5.1649;-1.572;2.0501;-28.6;-22.6;-20.9;116.81;-42.34;38.46;0.4;33.347;19.519552;-96.91521;;;158.06451;93.2;75.0;3.0;271996;2014-11-08 13:58:30:385
0.3065;2.7581;10.7259;1.0389;3.5601;8.5015;-0.6405;-1.4297;2.9466;-31.5;-15.6;-22.6;93.53;-29.21;-3.58;0.4;33.877;19.519552;-96.91521;;;158.06451;93.2;75.0;3.0;272496;2014-11-08 13:58:30:885
-4.2904;3.0645;9.5001;-1.1901;2.8846;10.4887;-2.3061;0.077;-1.3569;-15.6;-20.4;-30.5;125.09;-15.28;6.47;0.4;32.971;19.519552;-96.91521;;;158.06451;93.2;75.0;3.0;272996;2014-11-08 13:58:31:385
-3.8307;2.4516;9.5001;-4.2744;2.6921;9.2921;0.4992;-0.2835;0.317;-16.9;-19.6;-31.4;116.21;-14.75;24.7;0.4;33.029;19.519552;-96.91521;;;158.06451;93.2;75.0;3.0;273497;2014-11-08 13:58:31:886
1.992;-0.6129;10.113;-1.7388;1.7184;10.4991;4.9716;-1.6625;-0.6434;-32.7;-13.0;-24.8;104.4;-11.51;18.21;0.4;33.356;19.519552;-96.91521;;;158.06451;93.2;75.0;3.0;273997;2014-11-08 13:58:32:386
6.8952;-3.8307;5.5162;5.4211;-3.2539;8.1826;1.7509;-1.4953;-1.959;-41.6;-3.6;2.2;99.55;10.0;-23.14;0.4;35.927;19.519552;-96.91521;;;158.06451;93.2;75.0;3.0;274497;2014-11-08 13:58:32:886
7.6614;-4.9033;3.8307;7.2915;-4.3942;4.9434;0.4981;0.1372;-0.8441;-41.2;-4.8;5.6;122.93;26.51;-55.86;0.4;35.398;19.519552;-96.91521;;;158.06451;93.2;75.0;3.0;274997;2014-11-08 13:58:33:386
7.5081;-4.9033;4.5968;8.1875;-4.4441;4.1337;-1.1194;-0.632;-0.5573;-41.8;-3.2;6.6;125.07;25.85;-63.21;0.4;33.448;19.519552;-96.91521;;;158.06451;93.2;75.0;3.0;275497;2014-11-08 13:58:33:886
7.9678;-4.4436;3.6774;7.6564;-4.845;3.8689;0.532;0.6542;0.0368;-41.8;-2.9;6.7;124.74;27.92;-61.17;0.4;34.395;19.519552;-96.91521;;;158.06451;93.2;75.0;3.0;275997;2014-11-08 13:58:34:386
8.4275;-3.5242;3.371;8.2641;-4.1353;3.6585;-0.0875;0.2381;-0.4859;-41.6;-5.9;7.7;129.75;25.67;-65.52;0.4;33.465;19.519552;-96.91521;;;158.06451;93.2;75.0;3.0;276497;2014-11-08 13:58:34:886
9.1936;-2.2984;2.9113;8.9545;-2.8639;3.3022;0.3058;0.6007;-0.0736;-41.0;-12.3;8.5;135.89;22.24;-68.07;0.4;33.454;19.519552;-96.91521;;;158.06451;93.2;75.0;3.0;276997;2014-11-08 13:58:35:386
9.1936;-1.992;3.0645;9.198;-2.2149;2.9865;-0.0371;0.0918;-0.0964;-39.7;-12.6;10.1;133.14;13.1;-71.87;0.4;33.913;19.519552;-96.91521;;;158.06451;93.2;75.0;3.0;277497;2014-11-08 13:58:35:886
9.1936;-2.1452;3.0645;9.1305;-2.1013;3.0291;0.0557;-0.0368;9.0E-4;-39.3;-13.0;10.7;131.53;12.45;-71.97;0.4;33.832;19.519552;-96.91521;;;158.06451;93.2;75.0;3.0;277997;2014-11-08 13:58:36:386
9.1936;-1.992;3.0645;9.1748;-2.1158;3.0829;0.0193;0.1429;-0.0203;-39.3;-13.2;10.7;131.06;12.52;-71.36;0.4;34.531;19.519552;-96.91521;;;158.06451;93.2;75.0;3.0;278497;2014-11-08 13:58:36:886
9.1936;-2.2984;3.371;9.1508;-2.1503;3.2191;0.0428;-0.1481;0.1519;-39.7;-13.2;10.3;131.57;12.5;-70.62;0.4;34.909;19.519552;-96.91521;;;158.06451;93.2;75.0;3.0;278997;2014-11-08 13:58:37:386
8.8872;-2.1452;3.371;9.0963;-2.268;3.5861;-0.2091;0.1228;-0.2151;-40.3;-13.0;10.1;130.18;13.06;-68.48;0.0;35.401;19.519552;-96.91521;;;158.06451;93.2;75.0;3.0;279497;2014-11-08 13:58:37:886
9.0404;-1.992;3.371;9.0752;-2.1449;3.3529;-0.0348;0.153;0.0181;-40.5;-12.8;9.5;130.8;12.5;-69.72;0.0;34.123;19.519552;-96.91521;;;158.06451;93.2;75.0;3.0;279999;2014-11-08 13:58:38:388
9.0404;-2.1452;3.6774;9.0146;-2.1829;3.5406;0.0258;0.0378;0.1369;-40.5;-12.8;9.3;131.21;12.7;-68.56;0.0;34.028;19.519552;-96.91521;;;158.06451;93.2;75.0;3.0;280500;2014-11-08 13:58:38:889
9.0404;-2.2984;3.371;8.9975;-2.1734;3.4405;0.0429;-0.125;-0.0695;-40.5;-12.8;9.3;131.32;12.9;-68.51;0.0;34.763;19.519552;-96.91521;;;158.06451;93.2;75.0;3.0;281000;2014-11-08 13:58:39:389
8.8872;-2.1452;3.8307;8.8977;-2.1778;3.7973;-0.0106;0.0326;0.0334;-40.7;-12.6;8.9;130.46;12.63;-67.92;0.0;33.625;19.519552;-96.91521;;;158.06451;93.2;75.0;3.0;281501;2014-11-08 13:58:39:890
9.3468;-1.8387;3.0645;9.0141;-1.7873;3.6499;0.486;0.2551;-0.4321;-40.1;-13.0;9.7;128.71;11.47;-66.65;0.0;34.306;19.519552;-96.91521;;;158.06451;93.2;75.0;3.0;282001;2014-11-08 13:58:40:390
9.1936;-1.379;3.371;9.3462;-1.5104;3.0944;-0.1526;0.1313;0.2766;-39.1;-13.7;10.4;129.71;9.36;-71.19;0.0;34.664;19.519552;-96.91521;;;158.06451;93.2;75.0;3.0;282501;2014-11-08 13:58:40:890
9.1936;-1.5323;3.371;9.248;-1.7107;3.2954;-0.0543;0.1784;0.0756;-38.9;-14.3;10.9;129.33;9.27;-70.52;0.0;35.24;19.519552;-96.91521;;;158.06451;93.2;75.0;3.0;283001;2014-11-08 13:58:41:390
9.1936;-1.992;3.2178;9.138;-1.8538;3.1903;0.0556;-0.1381;0.0274;-38.9;-14.5;9.9;131.32;10.33;-70.44;0.0;37.389;19.519552;-96.91521;;;158.06451;93.2;75.0;3.0;283501;2014-11-08 13:58:41:890
9.1936;-1.992;2.9113;9.1995;-2.0413;3.2185;-0.0058;0.0493;-0.154;-39.1;-14.9;9.1;135.18;11.57;-70.76;0.0;35.563;19.519552;-96.91521;;;158.06451;93.2;75.0;3.0;284001;2014-11-08 13:58:42:390
9.1936;-1.8387;2.9113;9.2233;-1.9738;2.9488;0.1235;-0.0181;0.1157;-39.1;-15.3;8.7;136.53;11.52;-72.27;0.0;34.102;19.519552;-96.91521;;;158.06451;93.2;75.0;3.0;284501;2014-11-08 13:58:42:890
8.8872;-1.5323;2.9113;9.187;-1.809;2.945;-0.7595;0.1235;-0.0337;-38.9;-15.7;8.5;137.14;10.62;-72.23;0.0;34.007;19.519552;-96.91521;;;158.06451;93.2;75.0;3.0;285001;2014-11-08 13:58:43:390
8.7339;-3.0645;3.5242;9.2946;-2.2685;3.7964;-0.8671;-0.9493;0.0343;-39.3;-13.7;6.2;136.64;11.2;-69.49;0.0;34.603;19.519552;-96.91521;;;158.06451;93.2;75.0;3.0;285501;2014-11-08 13:58:43:890
8.4275;-3.2178;3.9839;8.4703;-3.2135;3.7905;0.4168;-0.3107;0.1934;-39.9;-11.3;6.4;134.06;17.82;-66.2;0.0;38.649;19.519552;-96.91521;;;158.06451;93.2;75.0;3.0;286001;2014-11-08 13:58:44:390
8.8872;-3.371;3.0645;8.5089;-3.3109;3.6969;0.2251;-0.3665;-0.4791;-40.9;-10.7;5.6;135.46;19.64;-66.52;0.0;38.227;19.519552;-96.91521;;;158.06451;93.2;75.0;3.0;286501;2014-11-08 13:58:44:890
9.1936;-3.0645;1.992;8.9355;-3.3502;2.8103;0.2581;0.2856;-0.3587;-40.7;-11.1;7.7;138.74;19.68;-72.54;0.0;37.344;19.519552;-96.91521;;;158.06451;93.2;75.0;3.0;287001;2014-11-08 13:58:45:390
9.1936;-2.1452;2.1452;9.2586;-2.6365;2.0529;0.2415;0.6445;0.0922;-39.8;-16.7;8.5;146.38;17.06;-76.65;0.0;38.079;19.519552;-96.91521;;;158.06451;93.2;75.0;3.0;287501;2014-11-08 13:58:45:890
9.1936;-1.2258;3.0645;9.4069;-1.4778;2.5436;-0.5197;0.252;0.521;-38.4;-16.3;9.4;144.26;12.04;-77.26;0.0;34.423;19.519552;-96.91521;;;158.06451;93.2;75.0;3.0;288002;2014-11-08 13:58:46:391
8.8872;-3.2178;1.8387;9.1539;-1.8808;2.6593;-0.2668;-1.3369;-0.8206;-38.2;-12.3;12.8;124.21;8.0;-72.08;0.0;36.888;19.519552;-96.91521;;;158.06451;93.2;75.0;3.0;288502;2014-11-08 13:58:46:891
9.5001;-2.1452;2.2984;9.2363;-2.7184;1.9441;0.2638;0.5732;0.3543;-38.4;-13.5;12.6;139.56;18.0;-79.43;0.4;33.696;19.519552;-96.91521;;;158.06451;93.2;75.0;3.0;289002;2014-11-08 13:58:47:391
9.1936;-2.1452;2.1452;9.2735;-2.1764;2.3136;-0.0799;0.0312;-0.1684;-38.4;-17.6;7.3;143.1;12.53;-75.85;0.0;32.736;19.519552;-96.91521;;;158.06451;93.2;75.0;3.0;289503;2014-11-08 13:58:47:892
9.3468;-1.8387;1.6855;9.4163;-1.9982;2.0843;-0.0694;0.1595;-0.3988;-38.2;-19.1;7.5;149.48;12.11;-77.05;0.0;33.553;19.519552;-96.91521;;;158.06451;93.2;75.0;3.0;290004;2014-11-08 13:58:48:393
9.6533;-1.8387;1.379;9.4266;-1.8334;1.3789;0.2267;-0.0053;1.0E-4;-37.6;-19.3;7.1;151.87;11.23;-79.64;0.0;33.939;19.519552;-96.91521;;;158.06451;93.2;75.0;3.0;290504;2014-11-08 13:58:48:893
9.6533;-1.6855;1.2258;9.5504;-1.6985;1.4266;0.1029;0.013;-0.2008;-37.2;-20.7;6.1;156.89;10.46;-81.88;0.0;33.049;19.519552;-96.91521;;;158.06451;93.2;75.0;3.0;291004;2014-11-08 13:58:49:393
9.5001;-1.6855;1.379;9.5855;-1.7321;1.2954;-0.0854;0.0466;0.0837;-37.2;-21.1;5.0;159.86;10.15;-82.3;0.0;32.435;19.519552;-96.91521;;;158.06451;93.2;75.0;3.0;291504;2014-11-08 13:58:49:893
9.5001;-1.8387;1.379;9.5201;-1.7998;1.5173;-0.02;-0.039;-0.1383;-37.4;-20.9;5.0;158.87;10.33;-81.41;0.0;35.872;19.519552;-96.91521;;;158.06451;93.2;75.0;3.0;292004;2014-11-08 13:58:50:393
9.3468;-2.1452;2.4516;9.4257;-1.9013;1.8126;-0.0789;-0.2438;0.6391;-37.6;-18.0;9.3;148.26;11.15;-80.37;0.0;36.508;19.519552;-96.91521;;;158.06451;93.2;73.0;3.0;292504;2014-11-08 13:58:50:893
9.1936;-2.2984;2.4516;9.3117;-2.2368;2.4308;-0.1181;-0.0616;0.0208;-38.2;-13.3;10.5;135.16;13.08;-75.37;0.4;32.866;19.519552;-96.91521;;;158.06451;93.2;73.0;3.0;293004;2014-11-08 13:58:51:393
9.0404;-3.0645;2.9113;9.0621;-2.6833;2.7435;-0.0217;-0.3812;0.1678;-39.1;-9.9;11.0;130.93;15.82;-73.16;0.4;32.102;19.519552;-96.91521;;;158.06451;93.2;73.0;3.0;293504;2014-11-08 13:58:51:893
9.0404;-3.5242;3.0645;8.8359;-3.2785;2.8787;0.2045;-0.2458;0.1858;-39.9;-9.1;11.2;131.2;19.43;-71.95;0.4;33.725;19.519552;-96.91521;;;158.06451;93.2;73.0;3.0;294005;2014-11-08 13:58:52:394
8.8872;-3.371;2.9113;8.8313;-3.3067;2.6765;0.0558;-0.0643;0.2348;-40.1;-8.3;11.2;131.19;19.71;-73.14;0.4;34.425;19.519552;-96.91521;;;158.06451;93.2;73.0;3.0;294505;2014-11-08 13:58:52:894
8.8872;-3.6774;2.6049;8.8693;-3.4345;2.9026;0.0179;-0.2429;-0.2978;-40.1;-7.9;11.6;129.09;20.0;-72.09;0.4;35.111;19.519552;-96.91521;;;158.06451;93.2;73.0;3.0;295005;2014-11-08 13:58:53:394
8.8872;-3.6774;2.6049;8.7884;-3.6009;2.4608;0.0988;-0.0765;0.144;-40.1;-7.7;12.0;132.12;21.48;-74.12;0.4;34.746;19.519552;-96.91521;;;158.06451;93.2;73.0;3.0;295505;2014-11-08 13:58:53:894
8.8872;-3.5242;2.7581;8.8226;-3.5576;2.7327;0.0645;0.0334;0.0254;-40.1;-7.5;12.0;130.29;21.42;-73.66;0.4;33.834;19.519552;-96.91521;;;158.06451;93.2;73.0;3.0;296005;2014-11-08 13:58:54:394
8.7339;-3.5242;2.7581;8.7584;-3.5489;2.706;-0.0244;0.0247;0.0521;-40.3;-7.7;11.8;130.65;21.16;-72.83;0.4;33.305;19.519552;-96.91521;;;158.06451;93.2;73.0;3.0;296506;2014-11-08 13:58:54:895
8.8872;-3.5242;2.9113;8.8301;-3.5087;2.794;0.0571;-0.0155;0.1173;-40.3;-7.7;11.8;129.98;20.75;-72.44;0.4;34.31;19.519552;-96.91521;;;158.06451;93.2;73.0;3.0;297006;2014-11-08 13:58:55:395
8.7339;-3.5242;2.7581;8.8382;-3.467;2.8178;0.0554;0.0855;-0.0529;-40.1;-7.7;11.8;129.81;20.68;-72.32;0.4;33.16;19.519552;-96.91521;;;158.06451;93.2;73.0;3.0;297506;2014-11-08 13:58:55:895
8.7339;-3.5242;2.7581;8.8175;-3.5176;2.7535;0.076;0.0093;0.1563;-40.1;-7.7;11.8;130.25;20.85;-72.66;0.4;33.528;19.519552;-96.91521;;;158.06451;93.2;73.0;3.0;298006;2014-11-08 13:58:56:395
8.7339;-3.5242;2.7581;8.7681;-3.5547;2.7728;-0.0365;0.0423;-0.0223;-40.1;-7.7;11.6;130.27;21.22;-72.39;0.4;33.265;19.519552;-96.91521;;;158.06451;93.2;73.0;3.0;298506;2014-11-08 13:58:56:895
8.7339;-3.6774;2.7581;8.7609;-3.5398;2.7875;-0.0166;0.0214;-0.0169;-40.1;-7.7;11.6;130.31;21.1;-72.52;0.4;32.646;19.519552;-96.91521;;;158.06451;93.2;73.0;3.0;299006;2014-11-08 13:58:57:395
8.7339;-3.6774;2.7581;8.7371;-3.6167;2.8238;0.0013;-0.0287;-0.224;-40.1;-7.7;11.6;130.08;21.19;-72.21;0.4;33.798;19.519552;-96.91521;;;158.06451;93.2;73.0;3.0;299506;2014-11-08 13:58:57:895
8.8872;-3.6774;2.9113;8.699;-3.6442;2.679;0.1857;-0.0192;0.0698;-40.3;-7.5;11.6;129.79;21.94;-72.73;0.4;33.686;19.519552;-96.91521;;;158.06451;93.2;73.0;3.0;300006;2014-11-08 13:58:58:395
8.8872;-3.6774;2.7581;8.8083;-3.6103;2.7606;0.0789;-0.0671;-0.0025;-40.3;-7.5;11.6;129.38;21.64;-72.53;0.4;33.692;19.519552;-96.91521;;;158.06451;93.2;73.0;3.0;300506;2014-11-08 13:58:58:895
8.8872;-3.6774;2.7581;8.7544;-3.5922;2.7563;0.1327;-0.0852;0.0018;-40.5;-7.7;11.4;131.84;21.38;-72.52;0.4;34.738;19.519552;-96.91521;;;158.06451;93.2;73.0;3.0;301007;2014-11-08 13:58:59:396
8.7339;-3.5242;2.7581;8.7178;-3.6257;2.8247;0.0162;0.1015;-0.0666;-40.5;-7.7;11.4;131.66;21.53;-72.22;0.4;32.997;19.519552;-96.91521;;;158.06451;93.2;73.0;3.0;301508;2014-11-08 13:58:59:897
8.7339;-3.5242;2.9113;8.6514;-3.6255;2.8012;0.0825;0.1013;0.1102;-40.5;-7.7;11.2;131.53;21.59;-72.05;0.4;33.03;19.519552;-96.91521;;;158.06451;93.2;73.0;3.0;302008;2014-11-08 13:59:00:397
8.5807;-3.5242;2.9113;8.7257;-3.6521;2.8347;-0.145;0.1279;0.0766;-40.7;-7.5;11.2;130.36;21.62;-72.05;0.4;32.495;19.519552;-96.91521;;;158.06451;93.2;73.0;3.0;302508;2014-11-08 13:59:00:897
8.7339;-3.6774;2.7581;8.7007;-3.6609;2.8911;0.0333;-0.0165;-0.133;-40.7;-7.3;11.0;130.05;21.77;-71.62;0.4;33.917;19.519552;-96.91521;;;158.06451;93.2;73.0;3.0;303008;2014-11-08 13:59:01:397
8.7339;-3.6774;2.7581;8.6951;-3.6541;2.783;0.0389;-0.0234;-0.0249;-40.5;-7.3;11.0;130.61;21.92;-72.21;0.4;33.136;19.519552;-96.91521;;;158.06451;93.2;73.0;3.0;303508;2014-11-08 13:59:01:897
8.7339;-3.8307;2.7581;8.7004;-3.6812;2.826;-0.1189;0.008;-0.0649;-40.3;-7.3;11.0;130.46;21.78;-72.17;0.4;33.422;19.519552;-96.91521;;;158.06451;93.2;73.0;3.0;304008;2014-11-08 13:59:02:397
8.7339;-3.6774;2.7581;8.718;-3.7629;2.7537;0.0159;0.0854;0.0044;-40.3;-7.3;11.2;131.04;22.22;-72.42;0.4;32.554;19.519552;-96.91521;;;158.06451;93.2;73.0;3.0;304508;2014-11-08 13:59:02:897
8.7339;-3.6774;2.7581;8.7379;-3.678;2.7587;-0.0047;0.0341;-1.0E-4;-40.5;-7.3;11.2;130.83;21.87;-72.48;0.4;32.671;19.519552;-96.91521;;;158.06451;93.2;73.0;3.0;305008;2014-11-08 13:59:03:397
8.8872;-3.6774;2.7581;8.7353;-3.682;2.7581;0.1518;0.0045;0.0;-40.3;-7.3;11.4;130.79;21.82;-72.47;0.4;32.676;19.519552;-96.91521;;;158.06451;93.2;73.0;3.0;305508;2014-11-08 13:59:03:897
8.7339;-3.6774;2.9113;8.7351;-3.6287;2.7592;-0.0011;-0.0487;0.1521;-40.1;-7.5;11.2;130.63;21.61;-72.47;0.4;32.279;19.519552;-96.91521;;;158.06451;93.2;73.0;3.0;306008;2014-11-08 13:59:04:397
8.7339;-3.5242;2.7581;8.736;-3.6004;2.814;-0.0021;0.0762;-0.056;-40.1;-7.5;11.2;130.17;21.42;-72.15;0.4;32.464;19.519552;-96.91521;;;158.06451;93.2;73.0;3.0;306508;2014-11-08 13:59:04:897
8.7339;-3.6774;3.0645;8.6576;-3.6995;2.8204;0.0764;0.022;0.2441;-40.1;-7.3;11.2;130.72;21.94;-72.32;0.4;32.638;19.519552;-96.91521;;;158.06451;93.2;73.0;3.0;307008;2014-11-08 13:59:05:397
8.5807;-3.8307;3.0645;8.657;-3.741;2.9384;-0.0762;-0.0896;0.1261;-40.3;-7.3;10.6;129.94;22.25;-71.25;0.4;33.1;19.519552;-96.91521;;;158.06451;93.2;73.0;3.0;307508;2014-11-08 13:59:05:897
8.5807;-3.8307;2.9113;8.6374;-3.7453;3.0161;-0.0567;-0.0854;-0.1048;-40.5;-7.3;10.2;130.87;22.36;-70.75;0.4;33.651;19.519552;-96.91521;;;158.06451;93.2;73.0;3.0;308008;2014-11-08 13:59:06:397
8.5807;-3.6774;2.9113;8.6244;-3.6873;2.9548;0.1095;-0.1433;0.1097;-40.5;-7.3;10.2;131.03;22.19;-71.03;0.4;32.875;19.519552;-96.91521;;;158.06451;93.2;73.0;3.0;308508;2014-11-08 13:59:06:897
8.7339;-3.8307;2.9113;8.6612;-3.7049;2.9224;0.226;0.0275;0.2953;-40.5;-7.5;10.4;131.14;22.05;-71.25;0.4;33.771;19.519552;-96.91521;;;158.06451;93.2;73.0;3.0;309008;2014-11-08 13:59:07:397
7.9678;-2.6049;3.2178;8.608;-3.5508;3.7367;0.1259;1.4057;0.094;-40.5;-7.7;9.5;129.64;21.45;-70.17;0.4;32.26;19.519552;-96.91521;;;158.06451;93.2;73.0;3.0;309509;2014-11-08 13:59:07:898
8.121;-2.7581;3.6774;8.6195;-2.418;4.0908;-0.192;-0.4933;0.1996;-40.5;-8.1;8.8;121.82;14.22;-64.61;0.4;32.404;19.519552;-96.91521;;;158.06451;93.2;73.0;3.0;310010;2014-11-08 13:59:08:399
8.8872;-1.8387;4.5968;8.7951;-2.3322;4.0856;-0.0611;0.3402;0.2048;-40.5;-9.2;8.8;123.88;14.72;-64.76;0.4;37.357;19.519552;-96.91521;;;158.06451;93.2;73.0;3.0;310510;2014-11-08 13:59:08:899
8.5807;-1.2258;5.2097;8.7208;-1.4761;4.6189;-0.1401;0.4035;0.744;-40.3;-12.3;5.2;125.9;8.51;-62.09;0.4;31.806;19.519552;-96.91521;;;158.06451;93.2;73.0;3.0;311010;2014-11-08 13:59:09:399
8.8872;-0.6129;6.1291;8.4371;-1.2934;5.8515;0.45;0.6805;0.2776;-40.1;-13.8;5.4;123.79;6.86;-56.52;0.4;40.954;19.519552;-96.91521;;;158.06451;93.2;73.0;3.0;311510;2014-11-08 13:59:09:899
8.8872;0.4597;2.4516;8.6623;-0.2115;4.6249;0.2249;0.6712;-2.1732;-39.1;-14.6;15.0;117.45;3.39;-57.76;0.4;33.773;19.519552;-96.91521;;;158.06451;93.2;73.0;3.0;312010;2014-11-08 13:59:10:399
9.3468;-0.6129;3.9839;9.4626;-1.2523;3.1686;-0.1157;0.6394;0.8153;-38.1;-14.3;12.0;125.59;4.36;-72.34;0.0;32.632;19.519552;-96.91521;;;158.06451;93.2;73.0;3.0;312511;2014-11-08 13:59:10:900
9.1936;0.3065;6.4355;9.3727;-1.1625;3.5707;-0.1791;1.4689;2.8648;-37.9;-13.7;9.7;127.17;6.24;-69.05;0.4;34.02;19.519552;-96.91521;;;158.06451;93.2;73.0;3.0;313011;2014-11-08 13:59:11:400
8.2743;0.1532;6.742;7.028;0.1796;6.5072;1.2462;-0.0264;0.2348;-38.9;-13.9;7.0;113.19;-1.07;-47.2;0.4;33.695;19.519552;-96.91521;;;158.06451;93.2;73.0;3.0;313511;2014-11-08 13:59:11:900
8.4275;0.0;5.9759;8.6699;0.2147;5.4187;-0.2424;-0.2147;0.5572;-39.3;-14.1;5.9;115.8;-1.6;-54.94;0.4;33.841;19.519552;-96.91521;;;158.06451;93.2;73.0;3.0;314011;2014-11-08 13:59:12:400
8.7339;-0.6129;5.2097;8.3914;-0.7338;5.5844;0.3426;0.1209;-0.3747;-39.7;-13.2;6.3;116.38;1.06;-56.66;0.4;42.489;19.519552;-96.91521;;;158.06451;93.2;73.0;3.0;314511;2014-11-08 13:59:12:900
8.5807;-0.4597;5.5162;8.5147;-0.3369;5.4256;0.066;0.0305;0.0906;-39.7;-13.4;6.5;118.11;2.99;-57.79;0.4;32.924;19.519552;-96.91521;;;158.06451;93.2;73.0;3.0;315011;2014-11-08 13:59:13:400
8.5807;-0.4597;5.3629;8.5889;-0.4245;5.4133;-0.0081;-0.0352;0.1029;-39.5;-13.8;6.9;119.65;2.39;-57.78;0.4;32.104;19.519552;-96.91521;;;158.06451;93.2;73.0;3.0;315511;2014-11-08 13:59:13:900
9.0404;0.4597;7.0484;8.5563;-0.2893;5.4908;0.4841;0.7489;1.5577;-39.3;-14.4;7.1;118.8;1.63;-57.31;0.4;32.191;19.519552;-96.91521;;;158.06451;93.2;73.0;3.0;316012;2014-11-08 13:59:14:401
9.0404;2.9113;5.0565;8.8396;0.4882;4.9763;0.2008;2.4231;0.0802;-38.7;-14.6;10.5;114.82;-1.9;-56.91;0.4;34.963;19.519552;-96.91521;;;158.06451;93.2;73.0;3.0;316512;2014-11-08 13:59:14:901
8.121;1.2258;4.5968;8.7447;1.7118;5.94;-0.6236;-0.486;-1.3432;-38.9;-6.5;10.8;91.2;-11.17;-57.75;0.4;33.094;19.519552;-96.91521;;;158.06451;93.2;73.0;3.0;317013;2014-11-08 13:59:15:402
9.3468;0.7661;5.6694;8.1973;1.2608;5.0018;1.1495;-0.4947;0.6676;-39.8;-8.0;11.3;97.97;-7.48;-58.61;0.0;32.556;19.519552;-96.91521;;;158.06451;93.2;73.0;3.0;317513;2014-11-08 13:59:15:902
7.5081;1.6855;5.5162;8.8808;2.7791;5.763;-1.3726;-1.0936;-0.2469;-40.1;-5.3;11.7;90.23;-10.31;-56.55;0.0;33.004;19.519552;-96.91521;;;158.06451;93.2;73.0;3.0;318013;2014-11-08 13:59:16:402
8.4275;-0.4597;5.2097;7.9271;0.9159;4.9173;0.5004;-1.3756;0.2924;-40.3;4.1;10.6;77.52;-5.61;-58.19;0.0;32.529;19.519552;-96.91521;;;158.06451;93.2;73.0;3.0;318514;2014-11-08 13:59:16:903
7.9678;-0.6129;5.6694;8.3551;-0.4665;5.7734;-0.3873;-0.1464;-0.104;-40.7;9.4;8.6;75.59;2.76;-56.31;0.0;32.23;19.519552;-96.91521;;;158.06451;93.2;73.0;3.0;319014;2014-11-08 13:59:17:403
8.121;-0.7661;5.8226;8.1711;-0.7885;6.0003;-0.0501;0.0223;-0.1777;-40.7;9.1;7.9;75.57;4.26;-54.11;0.0;32.746;19.519552;-96.91521;;;158.06451;93.2;73.0;3.0;319514;2014-11-08 13:59:17:903
7.9678;-0.9194;6.2823;7.8555;-1.0251;6.0873;0.1123;0.1057;0.195;-40.5;9.5;7.5;76.53;5.61;-52.92;0.0;32.962;19.519552;-96.91521;;;158.06451;93.2;73.0;3.0;320015;2014-11-08 13:59:18:404
7.9678;-1.379;5.8226;8.5154;-1.118;6.3816;-0.5476;-0.261;-0.559;-40.5;7.3;7.7;82.28;6.0;-53.15;0.0;32.708;19.519552;-96.91521;;;158.06451;93.2;73.0;3.0;320516;2014-11-08 13:59:18:905
